Time[sec]	Test_Cell_Temp[C]	Test_Cell_RH[%]	Dyno_Speed[mph]	Dyno_Tractive_Effort[N]	Phase_#	Accelerator_Pedal_Position[%]	HV_Battery_Current[A]	HV_Battery_Voltage[V]	HV_Battery_SOC[%]	Motor_Speed[rpm]
-10.000	20.988	38.769	0.001	-11.709	0.000	0.000	-0.119	-0.164	41.300	0.000
-9.900	20.988	38.770	0.000	-11.659	0.000	0.000	-0.114	-0.164	41.300	0.000
-9.800	20.989	38.768	0.000	-11.460	0.000	0.000	-0.118	-0.161	41.300	0.000
-9.700	20.989	38.769	0.000	-11.370	0.000	0.000	-0.120	-0.151	41.300	0.000
-9.600	20.989	38.769	0.001	-11.546	0.000	0.000	-0.120	-0.164	41.300	0.000
-9.500	20.986	38.771	0.000	-11.579	0.000	0.000	-0.120	-0.163	41.300	0.000
-9.400	20.985	38.769	0.001	-11.450	0.000	0.000	-0.120	-0.160	41.300	0.000
-9.300	20.986	38.770	0.000	-11.499	0.000	0.000	-0.120	-0.159	41.300	0.000
-9.200	20.983	38.768	0.000	-11.700	0.000	0.000	-0.121	-0.159	41.300	0.000
-9.100	20.984	38.768	0.000	-11.367	0.000	0.000	-0.121	-0.170	41.300	0.000
-9.000	20.985	38.771	0.000	-11.527	0.000	0.000	-0.119	-0.164	41.300	0.000
-8.900	20.985	38.769	0.000	-11.706	0.000	0.000	-0.116	-0.164	41.300	0.000
-8.800	20.985	38.770	0.000	-11.404	0.000	0.000	-0.120	-0.163	41.300	0.000
-8.700	20.983	38.769	0.001	-11.299	0.000	0.000	-0.119	-0.161	41.300	0.000
-8.600	20.984	38.769	0.000	-11.483	0.000	0.000	-0.117	-0.166	41.300	0.000
-8.500	20.984	38.770	0.000	-11.507	0.000	0.000	-0.120	-0.161	41.300	0.000
-8.400	20.985	38.770	0.000	-11.442	0.000	0.000	-0.121	-0.164	41.300	0.000
-8.300	20.985	38.772	0.000	-11.494	0.000	0.000	-0.120	-0.163	41.300	0.000
-8.200	20.984	38.772	0.000	-11.315	0.000	0.000	-0.121	-0.156	41.300	0.000
-8.100	20.983	38.772	0.000	-11.486	0.000	0.000	-0.120	-0.156	41.300	0.000
-8.000	20.984	38.772	0.001	-11.703	0.000	0.000	-0.120	-0.157	41.300	0.000
-7.900	20.984	38.772	0.000	-11.591	0.000	0.000	-0.120	-0.163	41.300	0.000
-7.800	20.983	38.772	0.000	-11.518	0.000	0.000	-0.119	-0.158	41.300	0.000
-7.700	20.983	38.774	0.001	-11.442	0.000	0.000	-0.118	-0.167	41.300	0.000
-7.600	20.983	38.773	0.000	-11.498	0.000	0.000	-0.120	-0.162	41.300	0.000
-7.500	20.981	38.772	0.000	-11.507	0.000	0.000	-0.124	-0.153	41.300	0.000
-7.400	20.981	38.772	0.000	-11.507	0.000	0.000	-0.120	-0.156	41.300	0.000
-7.300	20.980	38.772	0.000	-11.574	0.000	0.000	-0.120	-0.158	41.300	0.000
-7.200	20.981	38.772	0.000	-11.515	0.000	0.000	-0.120	-0.167	41.300	0.000
-7.100	20.980	38.771	0.002	-11.444	0.000	0.000	-0.116	-0.164	41.300	0.000
-7.000	20.979	38.772	0.000	-11.768	0.000	0.000	-0.120	-0.167	41.300	0.000
-6.900	20.980	38.771	0.000	-11.392	0.000	0.000	-0.124	-0.165	41.300	0.000
-6.800	20.979	38.773	0.000	-11.497	0.000	0.000	-0.119	-0.173	41.300	0.000
-6.700	20.979	38.775	0.000	-11.507	0.000	0.000	-0.118	-0.156	41.300	0.000
-6.600	20.977	38.774	0.000	-11.443	0.000	0.000	-0.118	-0.157	41.300	0.000
-6.500	20.977	38.775	0.000	-11.245	0.000	0.000	-0.115	-0.164	41.300	0.000
-6.400	20.978	38.776	0.000	-11.410	0.000	0.000	-0.118	-0.166	41.300	0.000
-6.300	20.979	38.775	0.001	-11.435	0.000	0.000	-0.120	-0.157	41.300	0.000
-6.200	20.979	38.773	0.000	-11.638	0.000	0.000	-0.121	-0.163	41.300	0.000
-6.100	20.976	38.774	0.000	-11.244	0.000	0.000	-0.119	-0.155	41.300	0.000
-6.000	20.975	38.774	0.000	-11.487	0.000	0.000	-0.121	-0.150	41.300	0.000
-5.900	20.973	38.774	0.000	-11.371	0.000	0.000	-0.120	-0.160	41.300	0.000
-5.800	20.974	38.773	0.000	-11.497	0.000	0.000	-0.119	-0.164	41.300	0.000
-5.700	20.974	38.773	0.000	-11.507	0.000	0.000	-0.118	-0.162	41.300	0.000
-5.600	20.973	38.773	0.000	-11.507	0.000	0.000	-0.115	-0.149	41.300	0.000
-5.500	20.975	38.772	0.001	-11.507	0.000	0.000	-0.119	-0.156	41.300	0.000
-5.400	20.974	38.775	0.000	-11.440	0.000	0.000	-0.118	-0.154	41.300	0.000
-5.300	20.972	38.776	0.000	-11.233	0.000	0.000	-0.118	-0.163	41.300	0.000
-5.200	20.972	38.774	0.000	-11.353	0.000	0.000	-0.120	-0.160	41.300	0.000
-5.100	20.972	38.773	0.000	-11.497	0.000	0.000	-0.120	-0.163	41.300	0.000
-5.000	20.972	38.774	0.000	-11.306	0.000	0.000	-0.120	-0.156	41.300	0.000
-4.900	20.972	38.774	0.000	-11.476	0.000	0.000	-0.120	-0.159	41.300	0.000
-4.800	20.972	38.773	0.000	-11.507	0.000	0.000	-0.120	-0.154	41.300	0.000
-4.700	20.969	38.775	0.001	-11.373	0.000	0.000	-0.120	-0.166	41.300	0.000
-4.600	20.968	38.775	0.001	-11.363	0.000	0.000	-0.119	-0.157	41.300	0.000
-4.500	20.968	38.776	0.000	-11.698	0.000	0.000	-0.117	-0.164	41.300	0.000
-4.400	20.968	38.776	0.000	-11.528	0.000	0.000	-0.120	-0.164	41.300	0.000
-4.300	20.967	38.776	0.000	-11.640	0.000	0.000	-0.118	-0.163	41.300	0.000
-4.200	20.968	38.775	0.000	-11.329	0.000	0.000	-0.114	-0.161	41.300	0.000
-4.100	20.967	38.777	0.000	-11.491	0.000	0.000	-0.117	-0.171	41.300	0.000
-4.000	20.966	38.778	0.000	-11.304	0.000	0.000	-0.118	-0.164	41.300	0.000
-3.900	20.966	38.776	0.000	-11.230	0.000	0.000	-0.119	-0.163	41.300	0.000
-3.800	20.966	38.776	0.001	-11.419	0.000	0.000	-0.112	-0.161	41.300	0.000
-3.700	20.966	38.776	0.000	-11.370	0.000	0.000	-0.118	-0.170	41.300	0.000
-3.600	20.966	38.778	0.000	-11.700	0.000	0.000	-0.120	-0.156	41.300	0.000
-3.500	20.966	38.777	0.000	-11.723	0.000	0.000	-0.123	-0.156	41.300	0.000
-3.400	20.966	38.777	0.000	-11.185	0.000	0.000	-0.120	-0.153	41.300	0.000
-3.300	20.966	38.779	0.000	-11.277	0.000	0.000	-0.118	-0.160	41.300	0.000
-3.200	20.963	38.779	0.000	-11.424	0.000	0.000	-0.120	-0.163	41.300	0.000
-3.100	20.961	38.779	0.000	-11.239	0.000	0.000	-0.118	-0.160	41.300	0.000
-3.000	20.961	38.778	0.001	-11.353	0.000	0.000	-0.121	-0.160	41.300	0.000
-2.900	20.961	38.779	0.000	-11.363	0.000	0.000	-0.121	-0.160	41.300	0.000
-2.800	20.962	38.779	0.000	-11.429	0.000	0.000	-0.118	-0.156	41.300	0.000
-2.700	20.962	38.778	0.000	-11.305	0.000	0.000	-0.120	-0.160	41.300	0.000
-2.600	20.961	38.778	0.000	-11.553	0.000	0.000	-0.120	-0.164	41.300	0.000
-2.500	20.958	38.778	0.001	-11.514	0.000	0.000	-0.119	-0.163	41.300	0.000
-2.400	20.957	38.778	0.000	-11.312	0.000	0.000	-0.117	-0.157	41.300	0.000
-2.300	20.957	38.779	0.000	-11.425	0.000	0.000	-0.118	-0.167	41.300	0.000
-2.200	20.956	38.778	0.000	-11.435	0.000	0.000	-0.118	-0.156	41.300	0.000
-2.100	20.957	38.779	0.000	-11.569	0.000	0.000	-0.120	-0.153	41.300	0.000
-2.000	20.959	38.778	0.000	-11.514	0.000	0.000	-0.120	-0.161	41.300	0.000
-1.900	20.956	38.779	0.000	-11.507	0.000	0.000	-0.118	-0.167	41.300	0.000
-1.800	20.952	38.779	0.001	-11.507	0.000	0.000	-0.120	-0.164	41.300	0.000
-1.700	20.952	38.779	0.000	-11.507	0.000	0.000	-0.120	-0.167	41.300	0.000
-1.600	20.952	38.779	0.000	-11.440	0.000	0.000	-0.121	-0.164	41.300	0.000
-1.500	20.952	38.779	0.001	-11.304	0.000	0.000	-0.123	-0.164	41.300	0.000
-1.400	20.952	38.781	0.000	-11.356	0.000	0.000	-0.121	-0.164	41.300	0.000
-1.300	20.952	38.781	0.000	-11.429	0.000	0.000	-0.123	-0.164	41.300	0.000
-1.200	20.950	38.781	0.000	-11.435	0.000	0.000	-0.120	-0.160	41.300	0.000
-1.100	20.948	38.781	0.000	-11.368	0.000	0.000	-0.118	-0.164	41.300	0.000
-1.000	20.947	38.783	0.000	-11.497	0.000	0.000	-0.117	-0.163	41.300	0.000
-0.900	20.948	38.783	0.000	-11.441	0.000	0.000	-0.121	-0.160	41.300	0.000
-0.800	20.946	38.782	0.000	-11.435	0.000	0.000	-0.120	-0.167	41.300	0.000
-0.700	20.946	38.783	0.000	-11.369	0.000	0.000	-0.120	-0.163	41.300	0.000
-0.600	20.946	38.782	0.000	-11.297	0.000	0.000	-0.120	-0.160	41.300	0.000
-0.500	20.946	38.781	0.000	-11.555	0.000	0.000	-0.120	-0.157	41.300	0.000
-0.400	20.945	38.783	0.001	-11.513	0.000	0.000	-0.118	-0.164	41.300	0.000
-0.300	20.943	38.785	0.000	-11.249	0.000	0.000	-0.120	-0.167	41.300	0.000
-0.200	20.943	38.783	0.000	-11.285	0.000	0.000	-0.119	-0.160	41.300	0.000
-0.100	20.941	38.785	0.000	-11.488	0.000	0.000	-0.117	-0.160	41.300	0.000
-0.000	20.942	38.785	0.001	-11.377	0.000	0.000	-0.120	-0.164	41.300	0.000
0.100	20.942	38.785	0.000	-11.424	0.000	0.000	-0.120	-0.164	41.300	0.000
0.200	20.941	38.785	0.000	-11.501	0.000	0.000	-0.120	-0.167	41.300	0.000
0.300	20.942	38.785	0.000	-11.507	0.000	0.000	-0.120	-0.157	41.300	0.000
0.400	20.942	38.785	0.000	-11.775	0.000	0.000	-0.118	-0.167	41.300	0.000
0.500	20.941	38.785	0.000	-11.594	0.000	0.000	-0.118	-0.164	41.300	0.000
0.600	20.941	38.787	0.000	-11.318	0.000	0.000	-0.120	-0.160	41.300	0.000
0.700	20.942	38.786	0.001	-11.354	0.000	0.000	-0.120	-0.164	41.300	0.000
0.800	20.941	38.787	0.000	-11.493	0.000	0.000	-0.121	-0.160	41.300	0.000
0.900	20.941	38.787	0.000	-11.382	0.000	0.000	-0.123	-0.156	41.300	0.000
1.000	20.942	38.787	0.000	-11.428	0.904	0.000	-0.121	-0.157	41.300	0.000
1.100	20.939	38.788	0.000	-11.568	1.000	0.000	-0.121	-0.167	41.300	0.000
1.200	20.938	38.789	0.000	-11.579	1.000	0.000	-0.115	-0.164	41.300	0.000
1.300	20.938	38.788	0.000	-11.579	1.000	0.000	-0.110	-0.167	41.300	0.000
1.400	20.939	38.787	0.000	-11.579	1.000	0.000	-0.117	-0.164	41.300	0.000
1.500	20.939	38.788	0.000	-11.318	1.000	0.000	-0.120	-0.171	41.300	0.000
1.600	20.938	38.788	0.000	-11.224	1.000	0.000	-0.119	-0.164	41.300	0.000
1.700	20.939	38.787	0.000	-11.351	1.000	0.000	-0.114	-0.164	41.300	0.000
1.800	20.938	38.791	0.001	-11.493	1.000	0.000	-0.120	-0.167	41.300	0.000
1.900	20.935	38.791	0.000	-11.632	1.000	0.000	-0.117	-0.157	41.300	0.000
2.000	20.933	38.791	0.001	-11.391	1.000	0.000	-0.121	0.009	41.300	0.000
2.100	20.933	38.792	0.000	-11.363	1.000	0.000	-0.118	0.150	41.300	0.000
2.200	20.933	38.792	0.000	-11.297	1.000	0.000	-0.121	0.143	41.300	0.000
2.300	20.933	38.792	0.000	-11.224	1.000	0.000	-0.118	0.147	41.300	0.000
2.400	20.933	38.791	0.000	-11.352	1.000	0.000	-0.107	0.166	41.300	0.000
2.500	20.933	38.792	0.000	-11.490	1.000	0.000	-0.117	0.166	41.300	0.000
2.600	20.930	38.792	0.000	-11.316	1.000	0.000	-0.118	0.167	41.300	0.000
2.700	20.929	38.792	0.000	-11.356	1.000	0.000	-0.119	0.193	41.300	0.000
2.800	20.930	38.792	0.000	-11.495	1.000	0.000	-0.039	2.140	41.300	0.000
2.900	20.930	38.794	0.000	-11.258	1.000	0.000	2.061	68.991	41.300	0.000
3.000	20.928	38.793	0.000	-11.608	1.000	0.000	0.468	290.707	41.300	0.000
3.100	20.929	38.794	0.000	-11.457	1.000	0.000	-0.063	301.093	41.300	0.000
3.200	20.930	38.794	0.000	-11.304	1.000	0.000	-0.066	301.813	41.300	0.000
3.300	20.927	38.795	0.000	-11.291	1.000	0.000	-0.068	301.892	41.300	0.000
3.400	20.927	38.794	0.001	-11.423	1.000	0.000	-0.063	301.900	41.300	0.000
3.500	20.927	38.794	0.000	-11.435	1.000	0.000	-0.075	301.900	41.300	0.000
3.600	20.927	38.794	0.000	-11.631	1.000	0.000	-0.087	301.900	41.300	0.000
3.700	20.927	38.797	0.000	-11.520	1.000	0.000	-0.081	301.900	41.300	0.000
3.800	20.927	38.796	0.001	-11.573	1.000	0.000	-0.079	301.896	41.300	0.000
3.900	20.927	38.795	0.001	-11.579	1.000	0.000	-0.028	301.899	41.300	0.000
4.000	20.927	38.796	0.000	-11.381	1.000	0.000	1.778	301.701	41.300	0.000
4.100	20.925	38.798	0.002	-11.495	1.000	0.000	3.428	301.632	41.300	0.000
4.200	20.926	38.798	0.000	-11.569	1.000	0.000	3.423	301.632	41.300	0.000
4.300	20.924	38.799	0.001	-11.456	1.000	0.000	3.303	301.632	41.300	0.000
4.400	20.924	38.798	0.000	-11.501	1.000	0.000	3.293	301.644	41.300	0.000
4.500	20.925	38.798	0.002	-11.440	1.000	0.000	3.249	301.636	41.300	0.000
4.600	20.926	38.798	0.000	-11.566	1.000	0.000	3.265	301.632	41.300	0.000
4.700	20.923	38.798	0.000	-11.447	1.000	0.000	3.198	301.647	41.300	0.000
4.800	20.922	38.799	0.001	-11.252	1.000	0.000	3.234	301.632	41.300	0.000
4.900	20.923	38.800	0.000	-11.349	1.000	0.000	3.258	301.632	41.300	0.000
5.000	20.921	38.798	0.000	-11.428	1.000	0.000	3.276	301.636	41.300	0.000
5.100	20.921	38.799	0.000	-11.496	1.000	0.000	3.256	301.636	41.300	0.000
5.200	20.921	38.800	0.000	-11.379	1.000	0.000	3.247	301.644	41.300	0.000
5.300	20.923	38.800	0.002	-11.230	1.000	0.000	3.203	301.651	41.300	0.000
5.400	20.921	38.800	0.000	-11.481	1.000	0.000	3.231	301.632	41.300	0.000
5.500	20.920	38.800	0.000	-11.572	1.000	0.000	3.239	301.640	41.300	0.000
5.600	20.918	38.801	0.000	-11.317	1.000	0.000	3.247	301.632	41.300	0.000
5.700	20.918	38.801	0.001	-11.538	1.000	0.000	3.231	301.632	41.300	0.000
5.800	20.920	38.802	0.000	-11.579	1.000	0.000	3.258	301.632	41.300	0.000
5.900	20.918	38.802	0.000	-11.383	1.000	0.000	3.165	301.632	41.300	0.000
6.000	20.918	38.802	0.000	-11.561	1.000	0.000	3.032	301.670	41.300	0.000
6.100	20.918	38.802	0.000	-11.381	1.000	0.000	3.001	301.659	41.300	0.000
6.200	20.915	38.802	0.000	-11.495	1.000	0.000	2.982	301.644	41.300	0.000
6.300	20.914	38.800	0.000	-11.383	1.000	0.000	2.978	301.667	41.300	0.000
6.400	20.913	38.803	0.001	-11.363	1.000	0.000	2.962	301.663	41.300	0.000
6.500	20.913	38.801	0.000	-11.558	1.000	0.000	2.943	301.655	41.300	0.000
6.600	20.914	38.800	0.000	-11.514	1.000	0.000	2.936	301.663	41.300	0.000
6.700	20.913	38.801	0.000	-11.442	1.000	0.000	2.925	301.648	41.300	0.000
6.800	20.911	38.802	0.001	-11.631	1.000	0.000	2.928	301.667	41.300	0.000
6.900	20.912	38.801	0.000	-11.718	1.000	0.000	2.928	301.656	41.300	0.000
7.000	20.912	38.803	0.001	-11.787	1.000	0.000	2.909	301.659	41.300	0.000
7.100	20.911	38.803	0.000	-11.539	1.000	0.000	2.899	301.655	41.300	0.000
7.200	20.911	38.805	0.000	-11.310	1.000	0.000	2.898	301.663	41.300	0.000
7.300	20.911	38.803	0.000	-11.487	1.000	0.000	2.894	301.659	41.300	0.000
7.400	20.912	38.805	0.000	-11.572	1.000	0.000	2.910	301.659	41.300	0.000
7.500	20.912	38.805	0.000	-11.445	1.000	0.000	2.928	301.667	41.300	0.000
7.600	20.909	38.804	0.000	-11.560	1.000	0.000	2.925	301.659	41.300	0.000
7.700	20.908	38.804	0.000	-11.456	1.000	0.000	2.912	301.663	41.300	0.000
7.800	20.907	38.803	0.000	-11.567	1.000	0.000	2.910	301.659	41.300	0.000
7.900	20.906	38.805	0.000	-11.388	1.000	0.000	2.918	301.652	41.300	0.000
8.000	20.907	38.804	0.000	-11.494	1.000	0.000	2.925	301.651	41.300	0.000
8.100	20.907	38.803	0.000	-11.507	1.000	0.000	2.940	301.670	41.300	0.000
8.200	20.907	38.804	0.001	-11.821	1.000	0.000	2.926	301.652	41.300	0.000
8.300	20.907	38.805	0.000	-11.276	1.000	0.000	2.917	301.663	41.300	0.000
8.400	20.905	38.805	0.001	-11.461	1.000	0.000	2.920	301.663	41.300	0.000
8.500	20.904	38.805	0.000	-11.639	1.000	0.000	2.911	301.663	41.300	0.000
8.600	20.905	38.805	0.001	-11.319	1.000	0.000	2.912	301.659	41.300	0.000
8.700	20.905	38.805	0.000	-11.556	1.000	0.000	2.907	301.652	41.300	0.000
8.800	20.904	38.807	0.000	-11.382	1.000	0.000	2.895	301.663	41.300	0.000
8.900	20.905	38.805	0.000	-11.626	1.000	0.000	2.873	301.663	41.300	0.000
9.000	20.904	38.805	0.000	-11.584	1.000	0.000	2.878	301.659	41.300	0.000
9.100	20.903	38.805	0.002	-11.514	1.000	0.000	2.866	301.655	41.300	0.000
9.200	20.903	38.805	0.000	-11.310	1.000	0.000	2.862	301.652	41.300	0.000
9.300	20.903	38.805	0.000	-11.490	1.000	0.000	2.859	301.659	41.300	0.000
9.400	20.902	38.805	0.000	-11.507	1.000	0.000	2.845	301.652	41.300	0.000
9.500	20.903	38.805	0.001	-11.507	1.000	0.000	2.841	301.644	41.300	0.000
9.600	20.902	38.805	0.000	-11.507	1.000	0.000	2.824	301.669	41.300	0.000
9.700	20.903	38.806	0.000	-11.308	1.000	0.000	2.819	301.656	41.300	0.000
9.800	20.902	38.805	0.000	-11.357	1.000	0.000	2.817	301.652	41.300	0.000
9.900	20.901	38.806	0.000	-11.549	1.000	0.000	2.812	301.651	41.300	0.000
10.000	20.901	38.807	0.000	-11.514	1.000	0.000	2.786	301.659	41.300	0.000
10.100	20.900	38.805	0.000	-11.838	1.000	0.000	2.781	301.659	41.300	0.000
10.200	20.900	38.805	0.000	-11.481	1.000	0.000	2.778	301.659	41.300	0.000
10.300	20.901	38.805	0.000	-11.687	1.000	0.000	2.772	301.666	41.300	0.000
10.400	20.900	38.807	0.000	-11.394	1.000	0.000	2.768	301.656	41.300	0.000
10.500	20.898	38.806	0.001	-11.494	1.000	0.000	2.767	301.659	41.300	0.000
10.600	20.897	38.805	0.000	-11.441	1.000	0.000	2.746	301.649	41.300	0.000
10.700	20.898	38.806	0.000	-11.558	1.000	0.000	2.731	301.654	41.300	0.000
10.800	20.897	38.805	0.000	-11.579	1.000	0.000	2.714	301.648	41.300	0.000
10.900	20.898	38.806	0.002	-11.513	1.000	0.000	2.715	301.658	41.300	0.000
11.000	20.895	38.806	0.000	-11.698	1.000	0.000	2.715	301.652	41.300	0.000
11.100	20.895	38.805	0.001	-11.526	1.000	0.000	2.715	301.669	41.300	0.000
11.200	20.895	38.805	0.000	-11.571	1.000	0.000	2.691	301.660	41.300	0.000
11.300	20.894	38.805	0.000	-11.383	1.000	0.000	2.683	301.652	41.300	0.000
11.400	20.894	38.804	0.001	-11.363	1.000	0.000	2.675	301.659	41.300	0.000
11.500	20.894	38.805	0.000	-11.297	1.000	0.000	2.669	301.666	41.300	0.000
11.600	20.894	38.803	0.000	-11.421	1.000	0.000	2.675	301.656	41.300	0.000
11.700	20.894	38.804	0.000	-11.631	1.000	0.000	2.670	301.662	41.300	0.000
11.800	20.894	38.805	0.000	-11.390	1.000	0.000	2.649	301.660	41.300	0.000
11.900	20.892	38.804	0.000	-11.165	1.000	0.000	2.635	301.663	41.300	0.000
12.000	20.890	38.802	0.000	-11.407	1.000	0.000	2.637	301.663	41.300	0.000
12.100	20.890	38.803	0.000	-11.631	1.000	0.000	2.631	301.660	41.300	0.000
12.200	20.889	38.804	0.000	-11.388	1.000	0.000	2.631	301.666	41.300	0.000
12.300	20.889	38.804	0.002	-11.674	1.000	0.000	2.623	301.663	41.300	0.000
12.400	20.889	38.803	0.000	-11.532	1.000	0.000	2.610	301.653	41.300	0.000
12.500	20.891	38.804	0.000	-11.569	1.000	0.000	2.605	301.658	41.300	0.000
12.600	20.891	38.805	0.000	-11.774	1.000	0.000	2.583	301.663	41.300	0.000
12.700	20.890	38.804	0.000	-11.365	1.000	0.000	2.523	301.663	41.300	0.000
12.800	20.888	38.802	0.000	-11.660	1.000	0.000	2.416	301.677	41.300	0.000
12.900	20.888	38.800	0.000	-11.461	1.000	0.000	2.364	301.689	41.300	0.000
13.000	20.888	38.801	0.000	-11.752	1.000	0.000	2.340	301.690	41.300	0.000
13.100	20.887	38.800	0.000	-11.601	1.000	0.000	2.308	301.690	41.300	0.000
13.200	20.888	38.802	0.001	-11.641	1.000	0.000	2.252	301.690	41.300	0.000
13.300	20.888	38.801	0.000	-11.522	1.000	0.000	2.227	301.698	41.300	0.000
13.400	20.888	38.801	0.000	-11.442	1.000	0.000	2.194	301.694	41.300	0.000
13.500	20.886	38.802	0.000	-11.628	1.000	0.000	2.163	301.694	41.300	0.000
13.600	20.885	38.801	0.000	-11.390	1.000	0.000	2.232	301.693	41.300	0.000
13.700	20.887	38.801	0.000	-11.429	1.000	0.000	2.275	301.683	41.300	0.000
13.800	20.886	38.803	0.000	-11.501	1.000	0.000	2.289	301.685	41.300	0.000
13.900	20.885	38.800	0.000	-11.441	1.000	0.000	2.296	301.677	41.300	0.000
14.000	20.885	38.803	0.000	-11.566	1.000	0.000	2.293	301.690	41.300	0.000
14.100	20.883	38.801	0.000	-11.456	1.000	0.000	2.289	301.690	41.300	0.000
14.200	20.882	38.800	0.000	-11.554	1.000	0.000	2.272	301.689	41.300	0.000
14.300	20.882	38.800	0.000	-11.579	1.000	0.000	2.273	301.686	41.300	0.000
14.400	20.882	38.798	0.000	-11.514	1.000	0.000	2.274	301.683	41.300	0.000
14.500	20.882	38.798	0.000	-11.769	1.000	0.000	2.280	301.687	41.300	0.000
14.600	20.881	38.799	0.000	-11.538	1.000	0.000	2.282	301.690	41.300	0.000
14.700	20.881	38.800	0.000	-11.572	1.000	0.000	2.274	301.690	41.300	0.000
14.800	20.881	38.799	0.000	-11.772	1.000	0.000	2.268	301.688	41.300	0.000
14.900	20.881	38.797	0.000	-11.533	1.000	0.000	2.260	301.683	41.300	0.000
15.000	20.880	38.797	0.000	-11.379	1.000	0.000	2.255	301.687	41.300	0.000
15.100	20.878	38.798	0.000	-11.363	1.000	0.000	2.262	301.687	41.300	0.000
15.200	20.880	38.797	0.000	-11.493	1.000	0.000	2.261	301.681	41.300	0.000
15.300	20.880	38.798	0.000	-11.572	1.000	0.000	2.251	301.687	41.300	0.000
15.400	20.880	38.798	0.000	-11.579	1.000	0.000	2.240	301.688	41.300	0.000
15.500	20.879	38.798	0.000	-11.514	1.000	0.000	2.237	301.689	41.300	0.000
15.600	20.875	38.796	0.001	-11.507	1.000	0.000	2.238	301.704	41.300	0.000
15.700	20.876	38.795	0.001	-11.507	1.000	0.000	2.239	301.688	41.300	0.000
15.800	20.877	38.795	0.000	-11.245	1.000	0.000	2.237	301.698	41.300	0.000
15.900	20.878	38.796	0.000	-11.413	1.000	0.000	2.227	301.710	41.300	0.000
16.000	20.877	38.796	0.000	-11.435	1.000	0.000	2.218	301.704	41.300	0.000
16.100	20.876	38.795	0.000	-11.630	1.000	0.000	2.218	301.686	41.300	0.000
16.200	20.875	38.796	0.000	-11.328	1.000	0.000	2.214	301.692	41.300	0.000
16.300	20.875	38.794	0.000	-11.291	1.000	0.000	2.218	301.711	41.300	0.000
16.400	20.873	38.795	0.001	-11.615	1.000	0.000	2.218	301.713	41.300	0.000
16.500	20.874	38.795	0.000	-11.392	1.000	0.000	2.205	301.711	41.300	0.000
16.600	20.873	38.795	0.000	-11.486	1.000	0.000	2.198	301.713	41.300	0.000
16.700	20.872	38.796	0.000	-11.572	1.000	0.000	2.188	301.712	41.300	0.000
16.800	20.872	38.795	0.000	-11.579	1.000	0.000	2.187	301.718	41.300	0.000
16.900	20.872	38.796	0.000	-11.579	1.000	0.000	2.192	301.710	41.300	0.000
17.000	20.874	38.794	0.000	-11.451	1.000	0.000	2.182	301.711	41.300	0.000
17.100	20.871	38.794	0.000	-11.435	1.000	0.000	2.173	301.716	41.300	0.000
17.200	20.872	38.796	0.000	-11.625	1.000	0.000	2.168	301.710	41.300	0.000
17.300	20.871	38.795	0.000	-11.329	1.000	0.000	2.167	301.711	41.300	0.000
17.400	20.870	38.794	0.000	-11.355	1.000	0.000	2.169	301.713	41.300	0.000
17.500	20.870	38.796	0.000	-11.427	1.000	0.000	2.169	301.710	41.300	0.000
17.600	20.872	38.795	0.000	-11.630	1.000	0.000	2.167	301.710	41.300	0.000
17.700	20.869	38.796	0.001	-11.454	1.000	0.000	2.147	301.710	41.300	0.000
17.800	20.869	38.795	0.000	-11.698	1.000	0.000	2.139	301.710	41.300	0.000
17.900	20.868	38.792	0.000	-11.593	1.000	0.000	2.145	301.710	41.300	0.000
18.000	20.866	38.794	0.000	-11.387	1.000	0.000	2.148	301.710	41.300	0.000
18.100	20.866	38.794	0.000	-11.426	1.000	0.000	2.146	301.710	41.300	0.000
18.200	20.867	38.795	0.000	-11.435	1.000	0.000	2.141	301.709	41.300	0.000
18.300	20.865	38.793	0.000	-11.500	1.000	0.000	2.124	301.705	41.300	0.000
18.400	20.866	38.793	0.001	-11.507	1.000	0.000	2.118	301.705	41.300	0.000
18.500	20.864	38.793	0.000	-11.244	1.000	0.000	2.118	301.713	41.300	0.000
18.600	20.863	38.795	0.001	-11.475	1.000	0.000	2.120	301.711	41.300	0.000
18.700	20.862	38.795	0.000	-11.507	1.000	0.000	2.126	301.713	41.300	0.000
18.800	20.862	38.794	0.000	-11.507	1.000	0.000	2.116	301.710	41.300	0.000
18.900	20.862	38.795	0.000	-11.636	1.000	0.000	2.101	301.710	41.300	0.000
19.000	20.862	38.794	0.000	-11.587	1.000	0.000	2.096	301.710	41.300	0.000
19.100	20.863	38.795	0.000	-11.190	1.000	0.000	2.089	301.710	41.300	0.000
19.200	20.861	38.794	0.001	-11.339	1.000	0.000	2.094	301.711	41.300	0.000
19.300	20.860	38.792	0.000	-11.557	1.000	0.000	2.092	301.716	41.300	0.000
19.400	20.859	38.792	0.000	-11.772	1.000	0.000	2.087	301.710	41.300	0.000
19.500	20.858	38.792	0.000	-11.314	1.000	0.000	2.085	301.713	41.300	0.000
19.600	20.857	38.794	0.000	-11.468	1.000	0.000	2.078	301.710	41.300	0.000
19.700	20.859	38.794	0.001	-11.378	1.000	0.000	2.071	301.710	41.300	0.000
19.800	20.858	38.792	0.000	-11.428	1.000	0.000	2.078	301.713	41.300	0.000
19.900	20.858	38.794	0.000	-11.435	1.000	0.000	2.079	301.710	41.300	0.000
20.000	20.858	38.792	0.000	-11.370	1.000	0.000	2.073	301.710	41.300	0.000
20.100	20.856	38.792	0.000	-11.690	1.000	0.000	2.058	301.710	41.300	0.000
20.200	20.856	38.792	0.001	-11.595	1.000	0.000	2.062	301.710	41.300	0.000
20.300	20.856	38.794	0.000	-11.579	1.000	0.000	2.061	301.713	41.300	0.000
20.400	20.857	38.792	0.000	-11.323	1.000	0.000	2.056	301.711	41.300	0.000
20.500	20.856	38.794	0.000	-11.226	1.000	0.000	2.055	301.716	41.300	0.000
20.600	20.856	38.793	0.000	-11.347	1.000	0.000	2.054	301.710	41.300	0.000
20.700	20.853	38.793	0.000	-11.750	1.000	0.000	2.077	301.708	41.300	0.000
20.800	20.850	38.792	0.000	-11.666	1.000	0.000	2.161	301.705	41.300	0.000
20.900	20.852	38.794	0.000	-11.393	1.000	0.000	2.080	301.716	41.300	0.000
21.000	20.851	38.792	0.000	-11.363	1.000	0.000	2.084	301.710	41.300	0.000
21.100	20.852	38.792	0.000	-11.621	1.000	0.000	2.087	301.710	41.300	0.000
21.200	20.853	38.792	0.000	-11.458	1.000	0.000	2.073	301.710	41.300	0.000
21.300	20.851	38.792	0.000	-11.241	1.000	0.000	2.058	301.710	41.300	0.000
21.400	20.849	38.794	0.000	-11.606	1.000	0.000	2.058	301.710	41.300	0.000
21.500	20.849	38.793	0.000	-11.715	1.000	0.000	2.061	301.710	41.300	0.000
21.600	20.850	38.792	0.000	-11.530	1.000	0.000	2.056	301.710	41.300	0.000
21.700	20.849	38.792	0.000	-11.378	1.000	0.000	2.048	301.710	41.300	0.000
21.800	20.850	38.794	0.000	-11.427	1.000	0.000	1.956	301.715	41.300	0.000
21.900	20.850	38.792	0.000	-11.818	1.000	0.000	1.694	301.738	41.300	0.000
22.000	20.850	38.793	0.000	-11.610	1.000	0.000	1.684	301.741	41.300	0.000
22.100	20.849	38.794	0.000	-11.386	1.000	0.000	1.678	301.740	41.300	0.000
22.200	20.845	38.792	0.000	-11.689	1.000	0.000	1.674	301.735	41.300	0.000
22.300	20.845	38.792	0.000	-11.336	1.000	0.000	1.683	301.732	41.300	0.000
22.400	20.845	38.794	0.000	-11.609	1.000	0.000	1.676	301.743	41.300	0.000
22.500	20.845	38.792	0.000	-11.780	1.000	0.000	1.670	301.738	41.300	0.000
22.600	20.845	38.792	0.000	-11.409	1.000	0.000	1.666	301.744	41.300	0.000
22.700	20.846	38.792	0.000	-11.492	1.000	0.000	1.660	301.739	41.300	0.000
22.800	20.843	38.792	0.000	-11.443	1.000	0.000	1.668	301.731	41.300	0.000
22.900	20.843	38.792	0.000	-11.242	1.000	0.000	1.667	301.740	41.300	0.000
23.000	20.843	38.792	0.000	-11.474	1.000	0.000	1.652	301.738	41.300	0.000
23.100	20.843	38.792	0.000	-11.507	1.000	0.000	1.653	301.743	41.300	0.000
23.200	20.843	38.794	0.000	-11.571	1.000	0.000	1.655	301.737	41.300	0.000
23.300	20.844	38.794	0.000	-11.643	1.000	0.000	1.650	301.737	41.300	0.000
23.400	20.845	38.794	0.000	-11.524	1.000	0.000	1.654	301.737	41.300	0.000
23.500	20.843	38.792	0.000	-11.507	1.000	0.000	1.653	301.737	41.300	0.000
23.600	20.842	38.792	0.000	-11.444	1.000	0.000	1.644	301.739	41.300	0.000
23.700	20.840	38.791	0.000	-11.564	1.000	0.000	1.633	301.745	41.300	0.000
23.800	20.839	38.792	0.000	-11.579	1.000	0.000	1.633	301.732	41.300	0.000
23.900	20.839	38.791	0.001	-11.579	1.000	0.000	1.634	301.748	41.300	0.000
24.000	20.839	38.791	0.000	-11.389	1.000	0.000	1.630	301.747	41.300	0.000
24.100	20.838	38.791	0.000	-11.427	1.000	0.000	1.632	301.736	41.300	0.000
24.200	20.840	38.792	0.000	-11.756	1.000	0.000	1.627	301.731	41.300	0.000
24.300	20.839	38.792	0.000	-11.410	1.000	0.000	1.621	301.742	41.300	0.000
24.400	20.836	38.792	0.000	-11.555	1.000	0.000	1.616	301.746	41.300	0.000
24.500	20.836	38.792	0.000	-11.322	1.000	0.000	1.611	301.735	41.300	0.000
24.600	20.836	38.791	0.000	-11.291	1.000	0.000	1.615	301.744	41.300	0.000
24.700	20.836	38.791	0.000	-11.483	1.000	0.000	1.621	301.743	41.300	0.000
24.800	20.836	38.792	0.000	-11.444	1.000	0.000	1.613	301.757	41.300	0.000
24.900	20.836	38.792	0.000	-11.563	1.000	0.000	1.599	301.761	41.300	0.000
25.000	20.836	38.792	0.000	-11.452	1.000	0.000	1.599	301.743	41.300	0.000
25.100	20.833	38.790	0.000	-11.308	1.000	0.000	1.633	301.737	41.300	0.000
25.200	20.832	38.790	0.000	-11.547	1.000	0.000	1.802	301.738	41.300	0.000
25.300	20.832	38.792	0.000	-11.579	1.000	0.000	1.657	301.745	41.300	0.000
25.400	20.832	38.791	0.000	-11.452	1.000	0.000	1.627	301.748	41.300	0.000
25.500	20.832	38.791	0.000	-11.435	1.000	0.000	1.620	301.743	41.300	0.000
25.600	20.832	38.792	0.000	-11.819	1.000	0.000	1.620	301.739	41.300	0.000
25.700	20.831	38.791	0.001	-11.415	1.000	0.000	1.621	301.756	41.300	0.000
25.800	20.830	38.792	0.001	-11.555	1.000	0.000	1.619	301.753	41.300	0.000
25.900	20.829	38.791	0.000	-11.643	1.000	0.000	1.620	301.760	41.300	0.000
26.000	20.828	38.792	0.000	-11.525	1.000	0.000	1.601	301.755	41.300	0.000
26.100	20.830	38.792	0.002	-11.379	1.000	0.000	1.601	301.748	41.300	0.000
26.200	20.829	38.791	0.000	-11.426	1.000	0.000	1.601	301.767	41.300	0.000
26.300	20.827	38.792	0.000	-11.371	1.000	0.000	1.601	301.764	41.300	0.000
26.400	20.826	38.791	0.001	-11.363	1.000	0.000	1.601	301.761	41.300	0.000
26.500	20.824	38.789	0.001	-11.618	1.000	0.000	1.600	301.744	41.300	0.000
26.600	20.823	38.789	0.000	-11.264	1.000	0.000	1.595	301.743	41.300	0.000
26.700	20.824	38.788	0.000	-11.410	1.000	0.000	1.587	301.760	41.300	0.000
26.800	20.824	38.788	0.000	-11.498	1.000	0.000	1.590	301.757	41.300	0.000
26.900	20.825	38.789	0.000	-11.571	1.000	0.000	1.587	301.737	41.300	0.000
27.000	20.823	38.789	0.000	-11.324	1.000	0.000	1.604	301.739	41.300	0.000
27.100	20.823	38.789	0.000	-11.546	1.000	0.000	1.594	301.756	41.300	0.000
27.200	20.820	38.786	0.000	-11.388	1.000	0.000	1.580	301.754	41.300	0.000
27.300	20.819	38.788	0.001	-11.489	1.000	0.000	1.581	301.767	41.300	0.000
27.400	20.818	38.787	0.000	-11.253	1.000	0.000	1.580	301.764	41.300	0.000
27.500	20.820	38.787	0.000	-11.283	1.000	0.000	1.582	301.764	41.300	0.000
27.600	20.820	38.787	0.000	-11.418	1.000	0.000	1.578	301.764	41.300	0.000
27.700	20.821	38.787	0.001	-11.561	1.000	0.000	1.579	301.761	41.300	0.000
27.800	20.820	38.786	0.000	-11.770	1.000	0.000	1.571	301.764	41.300	0.000
27.900	20.817	38.785	0.000	-11.541	1.000	0.000	1.567	301.768	41.300	0.000
28.000	20.817	38.784	0.000	-11.380	1.000	0.000	1.555	301.767	41.300	0.000
28.100	20.817	38.784	0.001	-11.620	1.000	0.000	1.556	301.757	41.300	0.000
28.200	20.817	38.784	0.000	-11.396	1.000	0.000	1.563	301.763	41.300	0.000
28.300	20.817	38.785	0.000	-11.620	1.000	0.000	1.558	301.756	41.300	0.000
28.400	20.817	38.784	0.000	-11.529	1.000	0.000	1.550	301.756	41.300	0.000
28.500	20.817	38.785	0.000	-11.442	1.000	0.000	1.546	301.758	41.300	0.000
28.600	20.817	38.784	0.000	-11.435	1.000	0.000	1.547	301.767	41.300	0.000
28.700	20.817	38.783	0.000	-11.690	1.000	0.000	1.547	301.761	41.300	0.000
28.800	20.817	38.783	0.000	-11.399	1.000	0.000	1.554	301.768	41.300	0.000
28.900	20.815	38.784	0.001	-11.363	1.000	0.000	1.553	301.767	41.300	0.000
29.000	20.814	38.781	0.001	-11.554	1.000	0.000	1.547	301.763	41.300	0.000
29.100	20.815	38.782	0.000	-11.579	1.000	0.000	1.543	301.757	41.300	0.000
29.200	20.815	38.782	0.000	-11.454	1.000	0.000	1.532	301.767	41.300	0.000
29.300	20.816	38.782	0.000	-11.499	1.000	0.000	1.530	301.764	41.300	0.000
29.400	20.812	38.779	0.000	-11.571	1.000	0.000	1.543	301.763	41.300	0.000
29.500	20.810	38.779	0.001	-11.384	1.000	0.000	1.528	301.757	41.300	0.000
29.600	20.811	38.778	0.000	-11.623	1.000	0.000	1.527	301.768	41.300	0.000
29.700	20.810	38.779	0.001	-11.396	1.000	0.000	1.531	301.767	41.300	0.000
29.800	20.812	38.779	0.000	-11.484	1.000	0.000	1.528	301.760	41.300	0.000
29.900	20.811	38.779	0.000	-11.641	1.000	0.000	1.523	301.757	41.300	0.000
30.000	20.810	38.778	0.000	-11.586	1.000	0.000	1.526	301.764	41.300	0.000
30.100	20.808	38.775	0.000	-11.579	1.000	0.000	1.527	301.764	41.300	0.000
30.200	20.808	38.775	0.000	-11.512	1.000	0.000	1.523	301.763	41.300	0.000
30.300	20.807	38.773	0.000	-11.440	1.000	0.000	1.518	301.752	41.300	0.000
30.400	20.805	38.773	0.000	-11.306	1.000	0.000	1.515	301.752	41.300	0.000
30.500	20.807	38.774	0.000	-11.491	1.000	0.000	1.517	301.753	41.300	0.000
30.600	20.808	38.774	0.000	-11.704	1.000	0.000	1.524	301.764	41.300	0.000
30.700	20.805	38.773	0.000	-11.456	1.000	0.000	1.512	301.764	41.300	0.000
30.800	20.806	38.772	0.000	-11.559	1.000	0.000	1.510	301.761	41.300	0.000
30.900	20.806	38.772	0.000	-11.514	1.000	0.000	1.512	301.766	41.300	0.000
31.000	20.807	38.770	0.000	-11.507	1.000	0.000	1.509	301.750	41.300	0.000
31.100	20.806	38.769	0.000	-11.842	1.000	0.000	1.510	301.764	41.300	0.000
31.200	20.807	38.769	0.000	-11.667	1.000	0.000	1.509	301.767	41.300	0.000
31.300	20.807	38.770	0.000	-11.258	1.000	0.000	1.491	301.757	41.300	0.000
31.400	20.808	38.769	0.000	-11.490	1.000	0.000	1.495	301.768	41.300	0.000
31.500	20.804	38.767	0.000	-11.507	1.000	0.000	1.492	301.764	41.300	0.000
31.600	20.803	38.765	0.000	-11.374	1.000	0.000	1.494	301.768	41.300	0.000
31.700	20.804	38.765	0.001	-11.567	1.000	0.000	1.496	301.764	41.300	0.000
31.800	20.803	38.766	0.001	-11.447	1.000	0.000	1.496	301.760	41.300	0.000
31.900	20.803	38.766	0.000	-11.635	1.000	0.000	1.485	301.760	41.300	0.000
32.000	20.801	38.765	0.000	-11.527	1.000	0.000	1.489	301.764	41.300	0.000
32.100	20.802	38.765	0.002	-11.375	1.000	0.000	1.481	301.768	41.300	0.000
32.200	20.802	38.766	0.000	-11.301	1.000	0.000	1.475	301.767	41.300	0.000
32.300	20.801	38.766	0.002	-11.553	1.000	0.000	1.479	301.756	41.300	0.000
32.400	20.802	38.765	0.000	-11.514	1.000	0.000	1.506	301.758	41.300	0.000
32.500	20.801	38.763	0.000	-11.507	1.000	0.000	1.762	301.730	41.300	0.000
32.600	20.801	38.764	0.000	-11.772	1.000	0.000	1.805	301.735	41.300	0.000
32.700	20.800	38.763	0.000	-11.660	1.000	0.000	2.143	301.713	41.300	0.000
32.800	20.800	38.763	0.000	-11.448	1.000	0.000	1.504	301.760	41.300	0.000
32.900	20.800	38.763	0.000	-11.773	1.000	0.000	1.473	301.768	41.300	0.000
33.000	20.797	38.761	0.001	-11.393	1.000	0.000	1.476	301.764	41.300	0.000
33.100	20.796	38.760	0.000	-11.363	1.000	0.000	1.467	301.767	41.300	0.000
33.200	20.797	38.758	0.000	-11.431	1.000	0.000	1.448	301.756	41.300	0.000
33.300	20.796	38.759	0.000	-11.368	1.000	0.000	1.455	301.761	41.300	0.000
33.400	20.797	38.759	0.000	-11.563	1.000	0.000	1.451	301.767	41.300	0.000
33.500	20.797	38.759	0.000	-11.579	1.000	0.000	1.470	301.757	41.300	0.000
33.600	20.797	38.759	0.000	-11.445	1.000	0.000	1.470	301.768	41.300	0.000
33.700	20.796	38.757	0.000	-11.232	1.000	0.000	1.453	301.768	41.300	0.000
33.800	20.795	38.756	0.000	-11.353	1.000	0.000	1.452	301.767	41.300	0.000
33.900	20.794	38.756	0.000	-11.494	1.000	0.000	1.453	301.753	41.300	0.000
34.000	20.791	38.756	0.000	-11.440	1.000	0.000	1.450	301.760	41.300	0.000
34.100	20.793	38.753	0.000	-11.638	1.000	0.000	1.454	301.764	41.300	0.000
34.200	20.794	38.755	0.000	-11.382	1.000	0.000	1.453	301.768	41.300	0.000
34.300	20.795	38.756	0.000	-11.628	1.000	0.000	1.439	301.764	41.300	0.000
34.400	20.793	38.754	0.000	-11.717	1.000	0.000	1.442	301.771	41.300	0.000
34.500	20.794	38.753	0.000	-11.389	1.000	0.000	1.432	301.764	41.300	0.000
34.600	20.791	38.752	0.000	-11.558	1.000	0.000	1.431	301.757	41.300	0.000
34.700	20.791	38.751	0.000	-11.513	1.000	0.000	1.435	301.768	41.300	0.000
34.800	20.792	38.750	0.000	-11.334	1.000	0.000	1.445	301.760	41.300	0.000
34.900	20.792	38.749	0.000	-11.488	1.000	0.000	1.431	301.764	41.300	0.000
35.000	20.791	38.750	0.000	-11.170	1.000	0.000	1.421	301.757	41.300	0.000
35.100	20.791	38.750	0.000	-11.281	1.000	0.000	1.424	301.767	41.300	0.000
35.200	20.789	38.747	0.000	-11.551	1.000	0.000	1.423	301.752	41.300	0.000
35.300	20.789	38.746	0.000	-11.252	1.000	0.000	1.426	301.757	41.300	0.000
35.400	20.788	38.746	0.000	-11.488	1.000	0.000	1.427	301.764	41.300	0.000
35.500	20.788	38.746	0.000	-11.440	1.000	0.000	1.413	301.768	41.300	0.000
35.600	20.788	38.746	0.000	-11.176	1.000	0.000	1.421	301.760	41.300	0.000
35.700	20.788	38.745	0.000	-11.416	1.000	0.000	1.415	301.756	41.300	0.000
35.800	20.788	38.746	0.000	-11.558	1.000	0.000	1.421	301.760	41.300	0.000
35.900	20.787	38.742	0.000	-11.645	1.000	0.000	1.421	301.771	41.300	0.000
36.000	20.785	38.742	0.000	-11.250	1.000	0.000	1.414	301.760	41.300	0.000
36.100	20.785	38.742	0.000	-11.546	1.000	0.000	1.405	301.768	41.300	0.000
36.200	20.785	38.741	0.000	-11.109	1.000	0.000	1.405	301.760	41.300	0.000
36.300	20.784	38.741	0.000	-11.480	1.000	0.000	1.408	301.760	41.300	0.000
36.400	20.784	38.741	0.000	-11.507	1.000	0.000	1.402	301.764	41.300	0.000
36.500	20.786	38.742	0.000	-11.440	1.000	0.000	1.418	301.768	41.300	0.000
36.600	20.786	38.740	0.000	-11.765	1.000	0.000	1.408	301.768	41.300	0.000
36.700	20.782	38.739	0.000	-11.546	1.000	0.000	1.403	301.772	41.300	0.000
36.800	20.783	38.739	0.000	-11.441	1.000	0.000	1.395	301.760	41.300	0.000
36.900	20.781	38.739	0.000	-11.501	1.000	0.000	1.397	301.756	41.300	0.000
37.000	20.782	38.738	0.000	-11.381	1.000	0.000	1.400	301.768	41.300	0.000
37.100	20.782	38.737	0.000	-11.491	1.000	0.000	1.400	301.768	41.300	0.000
37.200	20.781	38.738	0.000	-11.507	1.000	0.000	1.394	301.763	41.300	0.000
37.300	20.780	38.736	0.000	-11.240	1.000	0.000	1.530	301.727	41.300	0.000
37.400	20.780	38.734	0.000	-11.451	1.000	0.000	5.848	301.420	41.300	0.000
37.500	20.780	38.735	0.000	-11.310	1.000	0.000	3.173	301.659	41.300	0.000
37.600	20.780	38.734	0.000	-11.230	1.000	0.000	2.517	301.679	41.300	0.000
37.700	20.780	38.733	0.000	-11.483	1.000	0.000	2.716	301.675	41.300	0.000
37.800	20.780	38.733	0.000	-11.379	1.000	0.000	2.796	301.659	41.300	-15.926
37.900	20.779	38.734	0.000	-11.561	1.000	0.000	3.087	301.643	41.300	-16.994
38.000	20.779	38.733	0.000	-11.317	1.000	0.000	3.653	301.613	41.300	-17.000
38.100	20.777	38.732	0.000	-11.420	1.000	0.000	4.123	301.577	41.300	-0.145
38.200	20.777	38.729	0.048	-11.501	1.000	0.000	4.670	301.535	41.300	3.944
38.300	20.777	38.728	0.144	-8.230	1.000	0.000	5.226	301.477	41.300	16.866
38.400	20.778	38.729	0.077	-1.948	1.000	0.000	5.543	301.473	41.300	27.869
38.500	20.778	38.729	0.117	1.738	1.000	0.000	5.803	301.446	41.300	30.947
38.600	20.778	38.728	0.103	89.270	1.000	0.000	5.957	301.438	41.300	26.105
38.700	20.778	38.729	0.120	38.919	1.000	0.000	6.063	301.438	41.300	22.085
38.800	20.775	38.728	0.056	-8.340	1.000	0.000	5.946	301.430	41.300	16.128
38.900	20.775	38.728	0.051	-11.384	1.000	0.000	5.288	301.476	41.300	-13.971
39.000	20.773	38.727	0.004	-11.363	1.000	0.000	4.063	301.562	41.300	-17.933
39.100	20.773	38.727	0.000	-11.430	1.000	0.000	3.583	301.592	41.300	-10.511
39.200	20.773	38.727	0.000	-11.500	1.000	0.000	3.669	301.593	41.300	-7.038
39.300	20.773	38.727	0.000	-11.639	1.000	0.000	3.653	301.601	41.300	-6.013
39.400	20.774	38.728	0.000	-11.456	1.000	0.000	3.528	301.612	41.300	-6.000
39.500	20.773	38.728	0.000	-11.368	1.000	0.000	3.259	301.613	41.300	-6.000
39.600	20.772	38.726	0.000	-11.363	1.000	0.000	2.981	301.632	41.300	-6.000
39.700	20.771	38.722	0.000	-11.628	1.000	0.000	2.956	301.632	41.300	-6.000
39.800	20.771	38.723	0.000	-11.591	1.000	0.000	2.930	301.632	41.300	-6.000
39.900	20.771	38.724	0.000	-11.449	1.000	0.000	3.012	301.632	41.300	-6.000
40.000	20.771	38.724	0.001	-11.631	1.000	0.000	3.147	301.632	41.300	-2.143
40.100	20.771	38.723	0.048	-11.517	1.000	0.000	3.683	301.598	41.300	1.949
40.200	20.770	38.721	0.097	-11.376	1.000	0.000	4.218	301.563	41.300	8.974
40.300	20.768	38.720	0.119	-8.294	1.000	0.000	4.333	301.536	41.300	20.943
40.400	20.766	38.719	0.075	-11.352	1.000	0.000	4.827	301.512	41.300	25.970
40.500	20.767	38.719	0.159	102.011	1.000	0.000	5.235	301.477	41.300	26.993
40.600	20.766	38.720	0.140	0.997	1.000	0.000	5.653	301.439	41.300	30.893
40.700	20.767	38.719	0.140	319.137	1.000	0.000	6.191	301.396	41.300	26.048
40.800	20.766	38.719	0.185	33.658	1.000	0.000	6.117	301.418	41.300	26.988
40.900	20.766	38.718	0.118	131.121	1.000	0.000	5.939	301.430	41.300	18.108
41.000	20.763	38.717	0.183	26.534	1.000	0.000	6.054	301.419	41.300	24.768
41.100	20.763	38.717	0.102	176.561	1.000	0.000	6.022	301.419	41.300	17.038
41.200	20.763	38.717	0.162	45.354	1.000	0.000	6.068	301.415	41.300	27.922
41.300	20.763	38.715	0.106	222.281	1.000	0.000	5.903	301.426	41.300	18.067
41.400	20.763	38.717	0.189	63.108	1.000	0.000	6.016	301.408	41.300	20.976
41.500	20.763	38.717	0.086	233.303	1.000	0.000	5.918	301.429	41.300	19.019
41.600	20.763	38.717	0.188	60.756	1.000	0.000	5.999	301.411	41.300	27.908
41.700	20.762	38.716	0.099	262.084	1.000	0.000	5.871	301.414	41.300	25.035
41.800	20.762	38.714	0.162	52.151	1.000	0.000	6.118	301.400	41.300	26.975
41.900	20.760	38.715	0.099	180.218	1.000	2.789	5.936	301.410	41.300	25.008
42.000	20.759	38.713	0.209	36.375	1.000	5.585	7.371	301.282	41.300	40.917
42.100	20.760	38.715	0.104	229.297	1.000	5.203	6.706	301.364	41.300	22.127
42.200	20.761	38.714	0.207	56.894	1.000	4.803	6.824	301.346	41.300	29.935
42.300	20.759	38.715	0.120	251.379	1.000	4.800	6.725	301.360	41.300	25.044
42.400	20.758	38.714	0.174	71.811	1.000	5.184	6.874	301.345	41.300	29.803
42.500	20.758	38.713	0.163	750.552	1.000	5.595	6.923	301.341	41.300	23.082
42.600	20.758	38.712	0.187	78.924	1.000	7.173	7.051	301.326	41.300	32.833
42.700	20.758	38.712	0.173	480.266	1.000	10.787	7.105	301.322	41.200	25.028
42.800	20.758	38.714	0.136	53.826	1.000	12.782	7.545	301.296	41.200	35.898
42.900	20.757	38.712	0.256	374.030	1.000	12.800	8.066	301.250	41.200	26.061
43.000	20.759	38.713	0.113	889.035	1.000	12.800	8.345	301.226	41.200	35.927
43.100	20.757	38.712	0.263	179.048	1.000	12.800	8.601	301.217	41.200	34.017
43.200	20.754	38.709	0.243	1207.267	1.000	13.593	8.424	301.228	41.200	31.028
43.300	20.756	38.708	0.114	1411.800	1.000	14.787	8.945	301.203	41.200	42.870
43.400	20.755	38.708	0.293	250.858	1.000	16.776	9.210	301.176	41.200	35.097
43.500	20.754	38.708	0.316	1496.480	1.000	20.716	9.150	301.167	41.200	40.874
43.600	20.752	38.708	0.157	2714.932	1.000	20.404	10.613	301.061	41.200	51.884
43.700	20.752	38.708	0.149	277.465	1.000	20.400	10.666	301.061	41.200	37.086
43.800	20.754	38.708	0.371	518.634	1.000	20.003	10.010	301.111	41.200	21.109
43.900	20.752	38.708	0.280	2293.828	1.000	20.794	9.856	301.101	41.200	42.825
44.000	20.752	38.706	0.136	2725.004	1.000	23.178	10.803	301.035	41.200	51.917
44.100	20.752	38.707	0.310	285.718	1.000	29.095	11.277	300.996	41.200	43.158
44.200	20.752	38.706	0.436	1493.861	1.000	28.805	11.538	300.992	41.200	34.107
44.300	20.752	38.706	0.346	3126.058	1.000	28.800	11.977	300.959	41.200	60.651
44.400	20.753	38.706	0.230	3103.431	1.000	28.800	12.802	300.900	41.200	60.004
44.500	20.751	38.705	0.131	3321.893	1.000	28.800	12.768	300.895	41.200	41.103
44.600	20.747	38.704	0.282	322.839	1.000	31.184	12.053	300.941	41.200	24.111
44.700	20.748	38.701	0.475	1176.762	1.000	34.376	11.856	300.927	41.200	25.985
44.800	20.749	38.701	0.441	3058.092	1.000	34.400	13.497	300.820	41.200	63.666
44.900	20.748	38.702	0.334	3205.757	1.000	34.400	14.888	300.735	41.200	74.889
45.000	20.746	38.701	0.272	3359.161	1.000	34.795	15.070	300.724	41.200	57.204
45.100	20.747	38.701	0.205	3833.991	1.000	36.781	14.182	300.793	41.200	42.143
45.200	20.746	38.702	0.200	4078.142	1.000	40.361	14.113	300.805	41.200	41.011
45.300	20.745	38.701	0.198	4329.888	1.000	43.559	15.678	300.685	41.200	35.077
45.400	20.744	38.700	0.199	4389.408	1.000	44.396	16.270	300.620	41.200	31.020
45.500	20.742	38.699	0.197	4273.714	1.000	49.939	16.492	300.606	41.200	32.978
45.600	20.743	38.699	0.244	4414.581	1.000	51.161	17.797	300.471	41.200	38.804
45.700	20.743	38.700	0.268	4667.659	1.000	51.200	19.712	300.369	41.200	38.011
45.800	20.742	38.701	0.313	4790.292	1.000	61.626	19.880	300.340	41.200	40.896
45.900	20.742	38.700	0.360	4862.488	1.000	69.046	20.626	300.276	41.200	47.850
46.000	20.743	38.700	0.409	4959.165	1.000	67.682	22.127	300.152	41.200	59.388
46.100	20.740	38.699	0.505	5127.881	1.000	66.013	24.045	300.025	41.200	66.945
46.200	20.739	38.698	0.602	5270.727	1.000	64.811	25.457	299.928	41.200	77.897
46.300	20.737	38.698	0.700	5291.546	1.000	64.023	26.287	299.864	41.200	86.739
46.400	20.737	38.698	0.750	5262.513	1.000	62.419	26.694	299.830	41.200	92.928
46.500	20.739	38.697	0.801	5169.528	1.000	62.400	26.450	299.844	41.200	103.939
46.600	20.739	38.698	0.850	5077.244	1.000	61.224	26.561	299.826	41.200	111.841
46.700	20.738	38.697	0.899	5050.788	1.000	60.804	26.670	299.812	41.200	115.963
46.800	20.737	38.698	0.946	4988.380	1.000	60.800	26.497	299.823	41.200	122.923
46.900	20.737	38.698	0.978	4935.386	1.000	60.800	26.705	299.801	41.200	129.909
47.000	20.738	38.697	1.029	4936.290	1.000	60.800	26.951	299.771	41.200	135.577
47.100	20.736	38.698	1.076	4950.762	1.000	60.800	27.289	299.740	41.200	140.737
47.200	20.736	38.697	1.122	4934.325	1.000	61.196	27.469	299.723	41.200	143.969
47.300	20.736	38.699	1.145	4916.653	1.000	63.573	27.806	299.701	41.200	155.865
47.400	20.736	38.697	1.215	4928.000	1.000	70.712	28.557	299.647	41.200	159.951
47.500	20.733	38.695	1.287	4984.050	1.000	86.344	29.623	299.566	41.200	173.950
47.600	20.734	38.695	1.440	5115.490	1.000	89.187	32.153	299.362	41.200	203.858
47.700	20.733	38.696	1.654	5559.242	1.000	88.802	37.186	298.908	41.200	228.852
47.800	20.732	38.695	1.930	6172.138	1.000	88.800	43.833	298.446	41.200	247.805
47.900	20.734	38.695	2.195	6493.324	1.000	89.197	48.210	298.142	41.200	278.739
48.000	20.735	38.695	2.439	6559.584	1.000	95.539	51.846	297.874	41.200	310.697
48.100	20.734	38.695	2.697	6594.735	1.000	97.171	55.722	297.559	41.200	361.088
48.200	20.734	38.695	3.032	6828.640	1.000	99.159	62.209	297.057	41.200	400.206
48.300	20.734	38.695	3.404	7238.527	1.000	99.989	69.575	296.601	41.200	443.434
48.400	20.733	38.696	3.764	7469.439	1.000	100.000	75.238	296.220	41.200	487.805
48.500	20.732	38.695	4.092	7476.364	1.000	100.000	80.229	295.832	41.200	529.761
48.600	20.732	38.695	4.437	7415.482	1.000	100.000	84.381	295.478	41.200	581.705
48.700	20.732	38.695	5.123	7682.533	1.000	100.000	98.081	294.295	41.200	732.748
48.800	20.731	38.695	5.908	9468.120	1.000	100.000	136.142	291.289	41.200	803.152
48.900	20.729	38.696	6.590	10426.434	1.000	100.000	157.467	289.946	41.200	871.175
49.000	20.726	38.695	7.236	10230.690	1.000	100.000	169.662	289.015	41.200	990.471
49.100	20.728	38.695	7.871	10068.389	1.000	100.000	182.349	288.032	41.200	1075.857
49.200	20.726	38.696	8.496	10220.062	1.000	100.000	193.972	287.208	41.200	1132.350
49.300	20.728	38.695	8.944	10015.383	1.000	100.000	194.151	287.155	41.200	1166.819
49.400	20.727	38.695	9.263	9141.738	1.000	100.000	180.364	287.855	41.200	1220.659
49.500	20.727	38.695	9.592	7984.707	1.000	100.000	164.197	289.284	41.200	1302.050
49.600	20.727	38.695	10.164	7930.694	1.000	100.000	176.433	288.546	41.200	1405.890
49.700	20.724	38.693	10.830	9071.849	1.000	100.000	214.775	285.709	41.200	1471.277
49.800	20.725	38.694	11.463	9825.085	1.000	100.000	240.678	283.437	41.200	1564.264
49.900	20.723	38.693	12.066	9785.119	1.000	100.000	257.346	282.239	41.200	1663.607
50.000	20.723	38.694	12.711	9750.453	1.000	100.000	270.714	281.206	41.200	1734.612
50.100	20.724	38.694	13.306	9880.492	1.000	100.000	282.631	280.320	41.200	1806.586
50.200	20.725	38.693	13.888	9727.085	1.000	100.000	290.954	279.644	41.200	1894.474
50.300	20.723	38.694	14.484	9571.057	1.000	100.000	300.856	278.860	41.200	1973.728
50.400	20.722	38.695	14.980	9624.767	1.000	100.000	311.055	278.165	41.200	2041.625
50.500	20.720	38.695	15.576	9589.033	1.000	100.000	319.276	277.556	41.200	2130.163
50.600	20.720	38.695	16.143	9507.089	1.000	100.000	332.349	276.548	41.200	2212.355
50.700	20.719	38.695	16.721	9582.097	1.000	100.000	344.724	275.564	41.102	2278.731
50.800	20.719	38.695	17.298	9551.505	1.000	100.000	353.946	274.727	41.100	2366.828
50.900	20.719	38.696	17.888	9472.093	1.000	100.000	365.992	273.635	41.100	2445.923
51.000	20.719	38.695	18.436	9552.605	1.000	100.000	379.977	272.566	41.100	2510.100
51.100	20.718	38.697	19.016	9547.466	1.000	100.000	391.708	271.660	41.100	2596.399
51.200	20.716	38.697	19.600	9489.413	1.000	100.000	406.177	270.571	41.100	2680.055
51.300	20.714	38.696	20.126	9498.854	1.000	100.000	421.183	269.559	41.100	2750.246
51.400	20.713	38.698	20.726	9509.408	1.000	100.000	432.304	268.870	41.100	2833.091
51.500	20.713	38.698	21.312	9462.705	1.000	100.000	448.883	268.040	41.100	2922.810
51.600	20.714	38.698	21.845	9537.710	1.000	100.000	472.389	266.776	41.100	2983.149
51.700	20.715	38.698	22.433	9535.534	1.000	100.000	491.187	265.781	41.001	3069.390
51.800	20.713	38.697	22.991	9462.637	1.000	100.000	504.599	264.681	41.000	3150.985
51.900	20.710	38.698	23.528	9507.774	1.000	100.000	508.887	263.535	41.000	3229.497
52.000	20.711	38.698	24.127	9530.173	1.000	100.000	515.416	262.422	41.000	3299.460
52.100	20.713	38.698	24.672	9471.932	1.000	100.000	521.999	261.298	41.000	3390.213
52.200	20.710	38.697	25.262	9473.118	1.000	100.000	529.100	260.037	41.000	3462.288
52.300	20.712	38.698	25.829	9533.432	1.000	100.000	532.638	258.858	41.000	3540.991
52.400	20.711	38.699	26.363	9490.939	1.000	100.000	532.638	257.732	41.000	3623.386
52.500	20.710	38.698	26.977	9447.648	1.000	100.000	532.638	256.753	41.000	3699.728
52.600	20.708	38.699	27.510	9515.293	1.000	100.000	532.638	255.751	41.000	3767.623
52.700	20.710	38.700	28.086	9514.357	1.000	100.000	532.638	254.512	40.903	3842.617
52.800	20.707	38.699	28.664	9452.096	1.000	100.000	532.638	253.343	40.900	3921.428
52.900	20.710	38.699	29.209	9419.161	1.000	100.000	532.638	253.085	40.900	3969.604
53.000	20.708	38.699	29.695	9287.273	1.000	100.000	532.638	252.992	40.900	4036.762
53.100	20.708	38.700	30.188	9058.550	1.000	100.000	532.638	253.127	40.900	4092.224
53.200	20.708	38.701	30.642	8957.109	1.000	100.000	532.638	253.068	40.900	4157.215
53.300	20.706	38.701	31.075	8864.419	1.000	100.000	532.638	252.880	40.900	4209.313
53.400	20.706	38.702	31.547	8698.182	1.000	100.000	532.638	252.832	40.900	4269.737
53.500	20.704	38.701	31.989	8614.501	1.000	100.000	532.638	252.725	40.900	4326.686
53.600	20.705	38.703	32.405	8513.331	1.000	100.000	532.638	252.696	40.900	4376.666
53.700	20.703	38.701	32.847	8394.987	1.000	100.000	532.638	252.604	40.802	4433.125
53.800	20.703	38.702	33.238	8318.918	1.000	100.000	532.638	252.577	40.800	4478.884
53.900	20.703	38.701	33.638	8200.496	1.000	100.000	532.638	252.438	40.800	4532.452
54.000	20.702	38.702	34.019	8134.164	1.000	100.000	532.638	252.395	40.800	4587.310
54.100	20.701	38.702	34.392	8050.873	1.000	100.000	532.638	252.341	40.800	4627.474
54.200	20.700	38.701	34.761	7957.054	1.000	100.000	532.638	252.168	40.800	4672.822
54.300	20.699	38.701	35.121	7919.021	1.000	100.000	532.638	251.964	40.800	4717.137
54.400	20.700	38.701	35.487	7840.012	1.000	100.000	532.638	251.711	40.800	4770.662
54.500	20.700	38.701	35.829	7796.553	1.000	100.000	532.638	251.662	40.800	4815.666
54.600	20.700	38.702	36.159	7703.611	1.000	100.000	532.638	251.649	40.800	4851.684
54.700	20.698	38.701	36.503	7612.715	1.000	100.000	532.638	251.703	40.602	4895.572
54.800	20.694	38.703	36.796	7553.352	1.000	100.000	532.638	251.769	40.600	4933.582
54.900	20.694	38.704	37.115	7459.310	1.000	100.000	532.638	251.766	40.600	4972.457
55.000	20.694	38.704	37.425	7398.507	1.000	100.000	532.638	251.902	40.600	5015.864
55.100	20.694	38.704	37.709	7293.751	1.000	100.000	532.638	252.003	40.600	5046.856
55.200	20.694	38.705	37.977	7240.721	1.000	100.000	532.638	252.130	40.600	5082.789
55.300	20.692	38.704	38.263	7143.127	1.000	100.000	532.638	252.316	40.600	5112.718
55.400	20.693	38.705	38.511	7077.351	1.000	100.000	532.638	252.433	40.600	5149.694
55.500	20.690	38.706	38.784	7018.913	1.000	100.000	532.638	252.468	40.600	5183.680
55.600	20.688	38.704	39.033	6952.607	1.000	100.000	532.638	252.426	40.600	5219.618
55.700	20.687	38.704	39.274	6930.598	1.000	100.000	532.638	252.356	40.402	5246.753
55.800	20.687	38.705	39.518	6865.610	1.000	100.000	532.638	252.285	40.400	5284.507
55.900	20.687	38.704	39.755	6848.564	1.000	100.000	532.638	252.160	40.400	5310.887
56.000	20.687	38.705	40.005	6775.060	1.000	100.000	532.638	252.129	40.400	5337.173
56.100	20.687	38.704	40.220	6762.301	1.000	100.000	532.638	252.068	40.400	5372.751
56.200	20.683	38.702	40.447	6701.006	1.000	100.000	532.638	252.010	40.400	5400.650
56.300	20.681	38.702	40.692	6682.479	1.000	100.000	532.638	251.871	40.400	5427.007
56.400	20.682	38.703	40.889	6639.339	1.000	100.000	532.638	251.804	40.400	5456.670
56.500	20.681	38.701	41.104	6606.432	1.000	100.000	532.638	251.781	40.400	5482.704
56.600	20.682	38.702	41.326	6557.764	1.000	100.000	532.638	251.713	40.400	5510.442
56.700	20.681	38.701	41.525	6536.322	1.000	100.000	532.638	251.642	40.202	5535.770
56.800	20.681	38.701	41.722	6500.382	1.000	100.000	532.638	251.655	40.200	5562.864
56.900	20.677	38.701	41.907	6463.581	1.000	100.000	532.638	251.573	40.200	5592.816
57.000	20.674	38.699	42.109	6435.436	1.000	100.000	532.638	251.534	40.200	5609.875
57.100	20.674	38.699	42.307	6401.565	1.000	100.000	532.638	251.360	40.200	5638.262
57.200	20.673	38.698	42.502	6376.409	1.000	100.000	532.638	251.401	40.200	5663.660
57.300	20.673	38.698	42.679	6327.647	1.000	100.000	532.638	251.397	40.200	5686.357
57.400	20.674	38.698	42.846	6304.962	1.000	100.000	532.638	251.324	40.200	5708.736
57.500	20.673	38.697	43.036	6267.031	1.000	100.000	532.638	251.310	40.200	5730.511
57.600	20.671	38.698	43.188	6247.593	1.000	100.000	532.638	251.252	40.200	5751.904
57.700	20.664	38.695	43.361	6210.941	1.000	100.000	532.638	251.172	40.101	5775.856
57.800	20.661	38.695	43.527	6192.593	1.000	100.000	532.638	251.169	40.100	5792.880
57.900	20.662	38.693	43.694	6163.851	1.000	100.000	532.638	251.119	40.100	5819.087
58.000	20.661	38.694	43.850	6141.842	1.000	100.000	532.638	251.114	40.100	5835.845
58.100	20.661	38.693	44.015	6113.253	1.000	100.000	532.638	251.086	40.100	5855.427
58.200	20.662	38.694	44.155	6096.123	1.000	100.000	532.638	251.001	40.100	5876.653
58.300	20.659	38.692	44.306	6067.653	1.000	100.000	532.638	250.951	40.100	5898.533
58.400	20.654	38.689	44.455	6039.573	1.000	100.000	532.638	250.862	40.100	5916.926
58.500	20.650	38.688	44.601	6023.626	1.000	100.000	532.638	250.837	40.100	5932.820
58.600	20.648	38.688	44.749	5991.793	1.000	100.000	532.638	250.855	40.100	5947.779
58.700	20.649	38.687	44.895	5973.592	1.000	100.000	532.638	250.810	39.908	5972.970
58.800	20.649	38.688	45.040	5949.995	1.000	100.000	532.638	250.736	39.900	5984.699
58.900	20.649	38.687	45.170	5933.352	1.000	100.000	532.638	250.744	39.900	6001.797
59.000	20.647	38.687	45.309	5890.375	1.000	100.000	532.638	250.786	39.900	6024.563
59.100	20.640	38.684	45.434	5891.627	1.000	100.000	532.638	250.698	39.900	6039.674
59.200	20.636	38.682	45.560	5853.083	1.000	100.000	532.638	250.650	39.900	6054.669
59.300	20.635	38.682	45.704	5837.580	1.000	100.000	532.638	250.736	39.900	6069.926
59.400	20.635	38.681	45.809	5794.455	1.000	100.000	532.638	250.647	39.900	6084.586
59.500	20.634	38.680	45.943	5813.313	1.000	100.000	532.638	250.515	39.900	6099.891
59.600	20.635	38.680	46.051	5779.626	1.000	100.000	532.638	250.469	39.900	6118.834
59.700	20.634	38.680	46.194	5780.638	1.000	100.000	532.638	250.322	39.702	6136.821
59.800	20.629	38.680	46.293	5754.730	1.000	100.000	532.638	250.321	39.700	6151.301
59.900	20.622	38.676	46.406	5750.615	1.000	100.000	532.638	250.195	39.700	6163.769
60.000	20.619	38.675	46.524	5739.233	1.000	100.000	532.638	250.170	39.700	6181.467
60.100	20.617	38.676	46.631	5721.834	1.000	100.000	532.638	250.038	39.700	6192.950
60.200	20.618	38.675	46.731	5723.806	1.000	100.000	532.638	249.938	39.700	6205.568
60.300	20.618	38.675	46.849	5687.792	1.000	100.000	532.638	249.902	39.700	6222.884
60.400	20.617	38.675	46.973	5697.712	1.000	100.000	532.638	249.731	39.700	6239.868
60.500	20.611	38.672	47.076	5674.941	1.000	100.000	532.638	249.697	39.700	6249.909
60.600	20.604	38.668	47.174	5669.343	1.000	100.000	532.638	249.592	39.700	6264.614
60.700	20.600	38.666	47.270	5653.724	1.000	100.000	532.638	249.414	39.502	6278.838
60.800	20.601	38.667	47.369	5650.772	1.000	100.000	532.638	249.400	39.500	6287.818
60.900	20.600	38.668	47.460	5634.797	1.000	100.000	532.638	249.212	39.500	6299.668
61.000	20.600	38.665	47.579	5620.635	1.000	100.000	532.638	249.336	39.500	6315.419
61.100	20.600	38.665	47.678	5608.846	1.000	100.000	532.638	249.233	39.500	6330.557
61.200	20.598	38.665	47.805	5600.062	1.000	100.000	532.638	249.042	39.500	6339.773
61.300	20.589	38.662	47.876	5588.272	1.000	100.000	532.638	249.083	39.500	6352.531
61.400	20.583	38.659	47.981	5563.432	1.000	100.000	532.638	248.959	39.500	6367.583
61.500	20.583	38.657	48.079	5581.763	1.000	100.000	532.638	248.880	39.500	6379.864
61.600	20.582	38.659	48.151	5542.617	1.000	100.000	532.638	248.858	39.500	6386.646
61.700	20.582	38.659	48.246	5543.524	1.000	100.000	532.638	248.712	39.403	6398.692
61.800	20.579	38.661	48.343	5532.823	1.000	100.000	532.638	248.701	39.400	6410.732
61.900	20.580	38.659	48.442	5516.827	1.000	100.000	532.638	248.692	39.400	6421.934
62.000	20.571	38.657	48.538	5510.585	1.000	100.000	532.638	248.647	39.400	6440.686
62.100	20.563	38.656	48.594	5507.899	1.000	100.000	532.638	248.384	39.400	6444.964
62.200	20.560	38.656	48.687	5510.823	1.000	100.000	532.638	248.357	39.400	6449.867
62.300	20.559	38.656	48.781	5473.034	1.000	100.000	532.638	248.346	39.400	6464.431
62.400	20.560	38.656	48.863	5489.686	1.000	100.000	532.638	248.168	39.400	6477.812
62.500	20.559	38.655	48.932	5472.784	1.000	100.000	532.638	248.146	39.400	6490.554
62.600	20.558	38.656	49.028	5457.486	1.000	100.000	532.638	248.117	39.400	6497.948
62.700	20.553	38.653	49.106	5460.781	1.000	100.000	532.638	247.949	39.202	6505.933
62.800	20.545	38.651	49.176	5440.441	1.000	100.000	532.638	247.952	39.200	6518.912
62.900	20.542	38.649	49.270	5435.984	1.000	100.000	532.638	247.932	39.200	6531.550
63.000	20.540	38.649	49.325	5417.105	1.000	100.000	532.638	247.755	39.200	6538.934
63.100	20.540	38.649	49.418	5426.189	1.000	100.000	532.638	247.760	39.200	6552.850
63.200	20.539	38.649	49.472	5398.500	1.000	100.000	532.638	247.730	39.200	6557.943
63.300	20.540	38.649	49.560	5389.572	1.000	100.000	532.638	247.703	39.200	6564.912
63.400	20.534	38.648	49.615	5395.962	1.000	100.000	532.638	247.548	39.200	6577.947
63.500	20.521	38.648	49.708	5382.253	1.000	100.000	532.638	247.455	39.200	6591.688
63.600	20.519	38.649	49.763	5375.195	1.000	100.000	532.638	247.480	39.200	6595.974
63.700	20.518	38.647	49.836	5351.671	1.000	100.000	532.638	247.386	39.001	6603.940
63.800	20.519	38.649	49.908	5361.362	1.000	100.000	532.638	247.269	39.000	6615.803
63.900	20.519	38.649	49.993	5366.437	1.000	100.000	532.638	247.059	39.000	6621.940
64.000	20.518	38.649	50.062	5351.917	1.000	100.000	532.638	247.138	39.000	6632.878
64.100	20.514	38.649	50.114	5336.657	1.000	100.000	532.638	247.127	39.000	6641.616
64.200	20.504	38.649	50.186	5329.076	1.000	100.000	532.638	246.992	39.000	6649.287
64.300	20.499	38.647	50.262	5343.526	1.000	100.000	532.638	246.845	39.000	6660.943
64.400	20.498	38.649	50.311	5308.575	1.000	100.000	532.638	246.920	39.000	6663.902
64.500	20.497	38.648	50.362	5307.138	1.000	100.000	532.638	246.866	39.000	6676.906
64.600	20.497	38.649	50.453	5307.062	1.000	100.000	532.638	246.756	39.000	6679.975
64.700	20.497	38.649	50.507	5301.262	1.000	100.000	532.638	246.562	38.903	6689.676
64.800	20.496	38.649	50.582	5299.034	1.000	100.000	532.638	246.657	38.900	6698.749
64.900	20.486	38.650	50.634	5270.469	1.000	100.000	532.638	246.610	38.900	6704.928
65.000	20.479	38.649	50.699	5278.782	1.000	100.000	532.638	246.495	38.900	6715.577
65.100	20.478	38.650	50.750	5284.996	1.000	100.000	532.638	246.284	38.900	6719.906
65.200	20.475	38.649	50.798	5269.217	1.000	100.000	532.638	246.300	38.900	6724.886
65.300	20.476	38.650	50.872	5256.597	1.000	100.000	532.638	246.377	38.900	6732.944
65.400	20.476	38.650	50.925	5239.586	1.000	100.000	532.638	246.310	38.900	6744.699
65.500	20.475	38.649	50.992	5252.973	1.000	100.000	532.638	246.212	38.900	6749.545
65.600	20.467	38.650	51.043	5247.378	1.000	100.000	532.638	246.052	38.900	6756.939
65.700	20.459	38.652	51.093	5235.544	1.000	100.000	532.638	246.008	38.704	6765.829
65.800	20.455	38.654	51.142	5231.096	1.000	100.000	532.638	246.012	38.700	6769.948
65.900	20.454	38.654	51.189	5216.474	1.000	100.000	532.638	245.998	38.700	6773.982
66.000	20.454	38.654	51.239	5221.437	1.000	100.000	532.638	245.879	38.700	6787.752
66.100	20.454	38.654	51.288	5220.253	1.000	100.000	532.638	245.625	38.700	6789.985
66.200	20.454	38.655	51.336	5210.478	1.000	100.000	532.638	245.655	38.700	6798.740
66.300	20.448	38.656	51.385	5204.137	1.000	100.000	532.638	245.722	38.700	6799.954
66.400	20.440	38.661	51.433	5182.591	1.000	100.000	532.638	245.739	38.700	6809.763
66.500	20.437	38.662	51.509	5192.020	1.000	100.000	532.638	245.648	38.700	6815.829
66.600	20.434	38.663	51.535	5190.338	1.000	100.000	532.638	245.515	38.700	6817.975
66.700	20.435	38.662	51.581	5187.759	1.000	100.000	532.638	245.302	38.508	6830.480
66.800	20.434	38.662	51.659	5187.273	1.000	100.000	532.638	245.387	38.500	6831.000
66.900	20.435	38.663	51.683	5151.215	1.000	100.000	532.638	245.387	38.500	6838.949
67.000	20.434	38.665	51.729	5160.922	1.000	100.000	532.638	245.307	38.500	6844.827
67.100	20.424	38.670	51.780	5155.756	1.000	100.000	532.638	245.265	38.500	6847.902
67.200	20.421	38.674	51.830	5150.099	1.000	100.000	532.638	245.216	38.500	6856.909
67.300	20.418	38.673	51.879	5172.583	1.000	100.000	532.638	244.950	38.500	6866.722
67.400	20.417	38.673	51.909	5150.418	1.000	100.000	532.638	245.000	38.500	6870.954
67.500	20.419	38.673	51.955	5136.531	1.000	100.000	532.638	245.020	38.500	6871.986
67.600	20.418	38.675	52.005	5133.663	1.000	100.000	532.638	244.971	38.500	6874.988
67.700	20.416	38.675	52.026	5120.660	1.000	100.000	532.638	244.949	38.301	6882.952
67.800	20.408	38.681	52.101	5128.296	1.000	100.000	532.638	244.874	38.300	6891.752
67.900	20.403	38.685	52.125	5126.832	1.000	100.000	532.638	244.591	38.300	6899.795
68.000	20.402	38.685	52.171	5135.245	1.000	100.000	532.638	244.501	38.300	6901.982
68.100	20.401	38.687	52.200	5119.006	1.000	100.000	532.638	244.612	38.300	6901.055
68.200	20.402	38.688	52.249	5090.489	1.000	100.000	532.638	244.634	38.300	6909.852
68.300	20.400	38.686	52.270	5098.426	1.000	100.000	532.638	244.618	38.300	6918.731
68.400	20.402	38.688	52.318	5097.818	1.000	100.000	532.638	244.587	38.300	6923.980
68.500	20.398	38.694	52.345	5097.769	1.000	100.000	532.638	244.473	38.300	6923.032
68.600	20.394	38.700	52.394	5102.959	1.000	100.000	532.638	244.290	38.300	6932.936
68.700	20.391	38.702	52.443	5096.905	1.000	100.000	532.638	244.136	38.201	6935.955
68.800	20.392	38.704	52.466	5100.674	1.000	100.000	532.638	244.102	38.200	6940.774
68.900	20.392	38.704	52.495	5070.323	1.000	100.000	532.638	244.192	38.200	6944.958
69.000	20.392	38.705	52.540	5063.003	1.000	100.000	532.638	244.216	38.200	6948.887
69.100	20.392	38.704	52.562	5075.512	1.000	100.000	532.638	244.131	38.200	6951.826
69.200	20.393	38.709	52.592	5056.536	1.000	100.000	532.638	244.031	38.200	6958.976
69.300	20.392	38.717	52.638	5069.808	1.000	100.000	532.638	243.990	38.200	6960.991
69.400	20.392	38.720	52.660	5070.446	1.000	100.000	532.638	243.874	38.200	6968.770
69.500	20.392	38.723	52.689	5070.306	1.000	100.000	532.638	243.651	38.200	6969.993
69.600	20.393	38.724	52.734	5075.307	1.000	100.000	532.638	243.601	38.200	6973.964
69.700	20.392	38.723	52.757	5042.289	1.000	100.000	532.638	243.706	38.006	6979.806
69.800	20.392	38.722	52.786	5043.033	1.000	100.000	532.638	243.695	38.000	6984.947
69.900	20.392	38.724	52.833	5041.082	1.000	100.000	532.638	243.697	38.000	6985.988
70.000	20.397	38.734	52.856	5021.213	1.000	100.000	532.638	243.636	38.000	6993.713
70.100	20.397	38.742	52.884	5034.585	1.000	100.000	532.638	243.537	38.000	6994.000
70.200	20.399	38.744	52.930	5042.611	1.000	100.000	532.638	243.241	38.000	7001.955
70.300	20.397	38.744	52.932	5041.354	1.000	100.000	532.638	243.269	38.000	7002.993
70.400	20.399	38.744	52.978	5022.464	1.000	100.000	532.638	243.354	38.000	7005.976
70.500	20.400	38.745	53.000	5006.945	1.000	100.000	532.638	243.419	38.000	7006.964
70.600	20.401	38.745	53.027	5017.641	1.000	100.000	532.638	243.421	38.000	7012.830
70.700	20.407	38.754	53.047	5012.087	1.000	100.000	532.638	243.307	37.802	7015.966
70.800	20.411	38.760	53.078	4995.528	1.000	100.000	532.638	243.276	37.800	7016.980
70.900	20.415	38.763	53.124	5007.936	1.000	100.000	532.638	243.209	37.800	7024.971
71.000	20.414	38.764	53.147	5004.247	1.000	100.000	532.638	243.050	37.800	7029.976
71.100	20.412	38.764	53.147	5008.385	1.000	100.000	532.638	242.958	37.800	7032.981
71.200	20.413	38.764	53.175	5012.604	1.000	100.000	532.638	242.865	37.800	7036.970
71.300	20.414	38.763	53.225	5007.167	1.000	100.000	532.638	242.616	37.800	7036.009
71.400	20.421	38.768	53.245	5022.802	1.000	100.000	532.638	242.627	37.800	7037.973
71.500	20.431	38.778	53.273	5004.030	1.000	100.000	532.638	242.581	37.800	7039.978
71.600	20.434	38.783	53.293	4986.401	1.000	100.000	532.638	242.704	37.800	7046.811
71.700	20.437	38.783	53.323	4990.908	1.000	100.000	532.638	242.694	37.601	7052.978
71.800	20.437	38.785	53.343	4974.707	1.000	100.000	532.638	242.678	37.600	7053.995
71.900	20.437	38.785	53.371	4979.841	1.000	100.000	532.638	242.620	37.600	7054.991
72.000	20.436	38.785	53.393	4985.492	1.000	100.000	532.638	242.519	37.600	7058.942
72.100	20.444	38.790	53.421	4977.811	1.000	100.000	532.638	242.442	37.600	7061.974
72.200	20.461	38.797	53.441	4984.109	1.000	100.000	532.638	242.361	37.600	7064.970
72.300	20.466	38.801	53.469	4974.869	1.000	100.000	532.638	242.253	37.600	7071.923
72.400	20.467	38.801	53.490	4977.455	1.000	100.000	532.638	242.161	37.600	7070.072
72.500	20.470	38.800	53.518	4990.095	1.000	100.000	532.638	242.135	37.600	7074.931
72.600	20.469	38.801	53.518	4975.928	1.000	100.000	532.638	242.008	37.600	7078.982
72.700	20.469	38.801	53.568	4977.688	1.000	100.000	532.638	241.927	37.501	7079.000
72.800	20.473	38.802	53.588	4985.589	1.000	100.000	532.638	241.838	37.500	7084.936
72.900	20.493	38.807	53.617	4987.633	1.000	100.000	532.638	241.567	37.500	7086.984
73.000	20.505	38.813	53.637	4983.715	1.000	100.000	532.638	241.667	37.500	7088.975
73.100	20.507	38.813	53.639	4962.739	1.000	100.000	532.638	241.741	37.500	7099.840
73.200	20.509	38.814	53.669	4958.533	1.000	100.000	532.638	241.746	37.500	7095.059
73.300	20.509	38.815	53.687	4957.498	1.000	100.000	532.638	241.705	37.500	7094.013
73.400	20.510	38.816	53.715	4952.224	1.000	100.000	532.638	241.624	37.500	7099.928
73.500	20.511	38.815	53.735	4953.216	1.000	100.000	532.638	241.569	37.500	7102.933
73.600	20.536	38.819	53.763	4955.367	1.000	100.000	532.638	241.527	37.500	7103.974
73.700	20.550	38.822	53.764	4947.144	1.000	100.000	532.638	241.450	37.306	7108.839
73.800	20.556	38.823	53.784	4952.530	1.000	100.000	532.638	241.353	37.300	7107.019
73.900	20.556	38.824	53.813	4958.099	1.000	100.000	532.638	241.261	37.300	7108.949
74.000	20.557	38.823	53.833	4947.946	1.000	100.000	532.638	241.160	37.300	7116.911
74.100	20.557	38.824	53.861	4954.534	1.000	100.000	532.638	241.070	37.300	7115.031
74.200	20.557	38.822	53.880	4954.271	1.000	100.000	532.638	240.985	37.300	7120.975
74.300	20.575	38.824	53.908	4954.007	1.000	100.000	532.638	240.932	37.300	7121.000
74.400	20.599	38.824	53.908	4961.212	1.000	100.000	532.638	240.800	37.300	7127.957
74.500	20.609	38.823	53.928	4950.644	1.000	100.000	532.638	240.591	37.300	7130.978
74.600	20.609	38.824	53.956	4968.581	1.000	100.000	532.638	240.612	37.300	7131.991
74.700	20.613	38.824	53.959	4948.033	1.000	100.000	532.638	240.598	37.102	7130.019
74.800	20.611	38.824	53.978	4929.760	1.000	100.000	532.638	240.738	37.100	7138.901
74.900	20.612	38.822	54.005	4933.575	1.000	100.000	532.638	240.727	37.100	7139.988
75.000	20.627	38.820	54.026	4928.558	1.000	100.000	532.638	240.711	37.100	7140.987
75.100	20.659	38.817	54.056	4926.317	1.000	100.000	532.638	240.640	37.100	7141.995
75.200	20.671	38.815	54.058	4927.956	1.000	100.000	532.638	240.544	37.100	7144.964
75.300	20.674	38.818	54.076	4926.011	1.000	100.000	532.638	240.455	37.100	7145.000
75.400	20.676	38.814	54.077	4931.946	1.000	100.000	532.638	240.357	37.100	7150.789
75.500	20.677	38.814	54.103	4932.638	1.000	100.000	532.638	240.279	37.100	7151.000
75.600	20.677	38.816	54.126	4921.131	1.000	100.000	532.638	240.242	37.100	7150.011
75.700	20.681	38.813	54.152	4937.546	1.000	100.000	532.638	240.089	36.902	7157.905
75.800	20.719	38.804	54.157	4923.881	1.000	100.000	532.638	240.078	36.900	7160.961
75.900	20.739	38.799	54.200	4923.711	1.000	100.000	532.638	240.017	36.900	7157.017
76.000	20.746	38.798	54.202	4931.901	1.000	100.000	532.638	239.888	36.900	7162.966
76.100	20.749	38.798	54.219	4931.518	1.000	100.000	532.638	239.807	36.900	7162.007
76.200	20.749	38.798	54.223	4927.370	1.000	100.000	532.638	239.692	36.900	7172.909
76.300	20.750	38.797	54.250	4944.217	1.000	100.000	532.638	239.649	36.900	7168.045
76.400	20.754	38.796	54.271	4932.625	1.000	100.000	532.638	239.400	36.900	7175.731
76.500	20.790	38.784	54.297	4948.912	1.000	100.000	532.638	239.376	36.900	7177.977
76.600	20.815	38.777	54.299	4941.057	1.000	100.000	532.638	239.472	36.900	7177.012
76.700	20.825	38.772	54.319	4922.133	1.000	100.000	532.638	239.534	36.800	7177.000
76.800	20.826	38.772	54.349	4911.883	1.000	100.000	532.638	239.541	36.800	7181.974
76.900	20.826	38.772	54.351	4907.252	1.000	100.000	532.638	239.488	36.800	7182.000
77.000	20.829	38.772	54.368	4904.892	1.000	100.000	532.638	239.406	36.800	7182.993
77.100	20.828	38.771	54.370	4911.997	1.000	100.000	532.638	239.395	36.800	7188.949
77.200	20.854	38.760	54.396	4898.437	1.000	100.000	532.638	239.278	36.800	7187.021
77.300	20.893	38.744	54.398	4905.354	1.000	100.000	532.638	239.231	36.800	7194.697
77.400	20.908	38.737	54.418	4910.888	1.000	100.000	532.638	239.094	36.800	7191.045
77.500	20.914	38.735	54.445	4898.605	1.000	100.000	532.638	239.039	36.800	7191.000
77.600	20.913	38.734	54.449	4919.689	1.000	100.000	532.638	238.849	36.800	7194.984
77.700	20.914	38.733	54.448	4914.400	1.000	100.000	532.638	238.802	36.601	7192.017
77.800	20.915	38.733	54.465	4899.635	1.000	100.000	532.638	238.881	36.600	7186.071
77.900	20.934	38.721	54.492	4907.530	1.000	100.000	532.638	238.738	36.600	7202.450
78.000	20.983	38.699	54.495	4911.187	1.000	100.000	532.638	238.721	36.600	7203.000
78.100	20.998	38.691	54.540	4902.433	1.000	100.000	532.638	238.551	36.600	7205.963
78.200	21.005	38.688	54.545	4911.809	1.000	100.000	532.638	238.533	36.600	7204.133
78.300	21.005	38.688	54.545	4900.382	1.000	100.000	532.638	238.470	36.600	7209.829
78.400	21.005	38.687	54.563	4907.624	1.000	100.000	532.638	238.352	36.600	7210.993
78.500	21.005	38.687	54.592	4908.348	1.000	100.000	532.638	238.276	36.600	7209.018
78.600	21.011	38.682	54.593	4901.626	1.000	100.000	532.638	238.159	36.600	7213.921
78.700	21.062	38.654	54.611	4906.795	1.000	100.000	532.638	238.218	36.402	7218.939
78.800	21.090	38.638	54.614	4889.956	1.000	100.000	532.638	238.215	36.400	7219.000
78.900	21.099	38.633	54.639	4890.678	1.000	100.000	532.638	238.229	36.400	7219.000
79.000	21.102	38.630	54.642	4882.943	1.000	100.000	532.638	238.258	36.400	7222.970
79.100	21.103	38.630	54.660	4886.332	1.000	100.000	532.638	238.209	36.400	7222.029
79.200	21.102	38.630	54.661	4871.587	1.000	100.000	532.638	238.169	36.400	7223.979
79.300	21.108	38.626	54.688	4881.036	1.000	100.000	532.638	238.027	36.400	7224.000
79.400	21.159	38.594	54.691	4883.452	1.000	100.000	532.638	238.006	36.400	7224.987
79.500	21.192	38.573	54.689	4870.340	1.000	100.000	532.638	237.917	36.400	7225.996
79.600	21.202	38.567	54.690	4894.141	1.000	100.000	532.638	237.801	36.400	7226.000
79.700	21.205	38.564	54.736	4873.565	1.000	100.000	532.638	237.761	36.201	7226.993
79.800	21.206	38.565	54.742	4880.490	1.000	100.000	532.638	237.701	36.200	7231.961
79.900	21.206	38.563	54.741	4881.105	1.000	100.000	532.638	237.646	36.200	7233.982
80.000	21.207	38.563	54.757	4869.429	1.000	100.000	532.638	237.591	36.200	7234.000
80.100	21.235	38.538	54.762	4898.194	1.000	100.000	532.638	237.438	36.200	7236.965
80.200	21.284	38.504	54.786	4872.911	1.000	100.000	532.638	237.496	36.200	7238.949
80.300	21.304	38.489	54.790	4873.167	1.000	100.000	532.638	237.434	36.200	7238.004
80.400	21.309	38.487	54.792	4886.254	1.000	100.000	532.638	237.329	36.200	7241.980
80.500	21.309	38.485	54.806	4870.650	1.000	100.000	532.638	237.256	36.200	7241.006
80.600	21.309	38.484	54.810	4884.427	1.000	100.000	532.638	237.224	36.200	7241.000
80.700	21.309	38.484	54.837	4868.391	1.000	100.000	532.638	237.197	36.101	7244.966
80.800	21.335	38.463	54.840	4866.895	1.000	100.000	532.638	237.122	36.100	7245.000
80.900	21.391	38.418	54.840	4874.781	1.000	100.000	532.638	237.091	36.100	7245.000
81.000	21.410	38.402	54.838	4860.497	1.000	100.000	532.638	237.082	36.100	7245.000
81.100	21.416	38.397	54.858	4864.563	1.000	100.000	532.638	236.993	36.100	7247.959
81.200	21.416	38.396	54.859	4867.031	1.000	100.000	532.638	236.956	36.100	7254.963
81.300	21.418	38.395	54.885	4868.180	1.000	100.000	532.638	236.930	36.100	7249.041
81.400	21.419	38.396	54.889	4869.115	1.000	100.000	532.638	236.828	36.100	7248.007
81.500	21.418	38.396	54.889	4861.263	1.000	100.000	532.638	236.807	36.100	7252.959
81.600	21.418	38.395	54.906	4847.017	1.000	100.000	532.638	236.789	36.100	7253.990
81.700	21.419	38.396	54.910	4857.438	1.000	100.000	532.638	236.772	35.902	7252.021
81.800	21.419	38.393	54.936	4846.356	1.000	100.000	532.638	236.725	35.900	7255.953
81.900	21.419	38.395	54.938	4850.236	1.000	100.000	532.638	236.672	35.900	7255.013
82.000	21.458	38.353	54.938	4858.731	1.000	100.000	532.638	236.586	35.900	7255.989
82.100	21.508	38.312	54.935	4843.500	1.000	100.000	532.638	236.592	35.900	7256.000
82.200	21.524	38.295	54.937	4846.658	1.000	100.000	532.638	236.535	35.900	7258.959
82.300	21.528	38.291	54.936	4850.558	1.000	100.000	532.638	236.476	35.900	7260.984
82.400	21.531	38.288	54.937	4839.462	1.000	100.000	532.638	236.482	35.900	7257.037
82.500	21.530	38.288	54.956	4837.936	1.000	100.000	532.638	236.470	35.900	7257.000
82.600	21.531	38.288	54.984	4832.157	1.000	100.000	532.638	236.433	35.900	7264.909
82.700	21.564	38.252	54.986	4842.515	1.000	100.000	532.638	236.291	35.703	7264.013
82.800	21.616	38.202	54.987	4845.458	1.000	100.000	532.638	236.249	35.700	7264.000
82.900	21.637	38.182	54.985	4833.365	1.000	100.000	532.638	236.210	35.700	7264.995
83.000	21.642	38.177	54.986	4838.907	1.000	100.000	532.638	236.208	35.700	7264.006
83.100	21.643	38.175	54.985	4837.933	1.000	100.000	532.638	236.170	35.700	7262.015
83.200	21.645	38.175	54.985	4836.993	1.000	100.000	532.638	236.118	35.700	7265.966
83.300	21.644	38.174	55.005	4820.896	1.000	100.000	532.638	236.067	35.700	7269.961
83.400	21.656	38.156	55.007	4826.194	1.000	100.000	532.638	235.984	35.700	7267.034
83.500	21.714	38.093	55.032	4834.216	1.000	100.000	532.638	235.999	35.700	7266.012
83.600	21.744	38.064	55.034	4800.817	1.000	100.000	532.638	236.107	35.700	7266.000
83.700	21.755	38.053	55.035	4805.395	1.000	100.000	532.638	236.263	35.501	7266.000
83.800	21.756	38.049	55.009	4805.775	1.000	100.000	532.638	236.504	35.500	7265.006
83.900	21.756	38.050	54.988	4756.216	1.000	100.000	532.638	236.740	35.500	7264.007
84.000	21.757	38.050	54.986	4762.684	1.000	100.000	532.638	236.938	35.500	7264.000
84.100	21.765	38.036	54.985	4741.508	1.000	100.000	532.638	237.113	35.500	7258.277
84.200	21.820	37.972	54.987	4705.281	1.000	100.000	532.638	237.368	35.500	7256.022
84.300	21.854	37.934	54.987	4718.924	1.000	100.000	532.638	237.555	35.500	7258.940
84.400	21.866	37.921	54.943	4689.336	1.000	100.000	532.638	237.756	35.500	7254.065
84.500	21.871	37.918	54.938	4670.264	1.000	100.000	532.638	237.964	35.500	7253.024
84.600	21.870	37.916	54.911	4676.825	1.000	100.000	532.638	238.255	35.500	7246.038
84.700	21.871	37.916	54.890	4637.325	1.000	100.000	532.638	238.432	35.306	7245.032
84.800	21.869	37.912	54.886	4628.186	1.000	100.000	532.638	238.672	35.300	7235.079
84.900	21.911	37.861	54.843	4624.839	1.000	100.000	532.638	238.882	35.300	7240.946
85.000	21.962	37.804	54.838	4586.984	1.000	100.000	532.638	239.050	35.300	7231.123
85.100	21.979	37.781	54.793	4595.824	1.000	100.000	532.638	239.202	35.300	7231.988
85.200	21.983	37.775	54.766	4574.497	1.000	100.000	532.638	239.454	35.300	7225.116
85.300	21.984	37.773	54.742	4552.560	1.000	100.000	532.638	239.655	35.300	7225.995
85.400	21.983	37.773	54.716	4559.118	1.000	100.000	532.638	239.870	35.300	7215.052
85.500	21.985	37.771	54.694	4531.579	1.000	100.000	532.638	240.080	35.300	7214.006
85.600	22.018	37.725	54.647	4529.311	1.000	100.000	532.638	240.274	35.300	7210.054
85.700	22.073	37.660	54.616	4515.090	1.000	100.000	532.638	240.498	35.201	7204.052
85.800	22.091	37.636	54.569	4499.836	1.000	100.000	532.638	240.698	35.200	7202.019
85.900	22.097	37.628	54.548	4481.484	1.000	100.000	532.638	240.923	35.200	7192.106
86.000	22.100	37.626	54.520	4475.392	1.000	100.000	532.638	241.099	35.200	7187.061
86.100	22.101	37.625	54.472	4469.850	1.000	100.000	532.638	241.256	35.200	7183.054
86.200	22.101	37.625	54.425	4454.807	1.000	100.000	532.638	241.363	35.200	7172.050
86.300	22.109	37.607	54.402	4448.458	1.000	100.000	532.638	241.558	35.200	7175.909
86.400	22.168	37.530	54.357	4427.403	1.000	100.000	532.638	241.776	35.200	7158.436
86.500	22.202	37.489	54.305	4419.083	1.000	100.000	532.521	241.987	35.200	7160.958
86.600	22.212	37.476	54.258	4406.704	1.000	100.000	531.930	242.201	35.200	7154.244
86.700	22.216	37.472	54.209	4388.598	1.000	100.000	531.017	242.370	35.002	7145.097
86.800	22.217	37.470	54.136	4393.734	1.000	100.000	529.688	242.595	35.000	7136.106
86.900	22.217	37.472	54.107	4372.559	1.000	100.000	528.614	242.744	35.000	7133.127
87.000	22.224	37.456	54.063	4366.364	1.000	100.000	527.437	242.930	35.000	7125.034
87.100	22.281	37.378	54.010	4363.071	1.000	100.000	526.414	243.086	35.000	7120.027
87.200	22.312	37.334	53.965	4348.870	1.000	100.000	525.259	243.195	35.000	7118.013
87.300	22.322	37.317	53.915	4343.840	1.000	100.000	524.207	243.351	35.000	7107.085
87.400	22.327	37.314	53.839	4330.505	1.000	100.000	522.115	243.541	35.000	7096.099
87.500	22.327	37.312	53.770	4288.013	1.000	100.000	516.941	244.105	35.000	7090.061
87.600	22.326	37.311	53.695	4208.734	1.000	93.277	512.790	245.317	35.000	7077.147
87.700	22.327	37.309	53.571	4142.813	1.000	79.742	499.307	246.564	34.808	7036.627
87.800	22.365	37.248	53.338	3874.246	1.000	75.215	443.215	250.459	34.800	6994.154
87.900	22.414	37.179	53.134	3397.052	1.000	75.200	369.670	255.520	34.800	6974.097
88.000	22.431	37.157	52.921	3137.102	1.000	75.200	341.283	257.850	34.800	6948.160
88.100	22.437	37.149	52.698	3132.918	1.000	75.200	334.155	258.538	34.800	6917.232
88.200	22.437	37.147	52.501	3084.953	1.000	73.217	325.337	259.305	34.800	6883.294
88.300	22.437	37.147	52.283	2964.093	1.000	65.355	314.052	260.008	34.800	6860.446
88.400	22.438	37.144	52.000	2909.767	1.000	58.871	300.509	261.038	34.800	6808.577
88.500	22.470	37.090	51.703	2695.861	1.000	57.625	269.388	263.333	34.800	6772.739
88.600	22.520	37.019	51.409	2414.983	1.000	54.442	244.685	265.865	34.800	6729.566
88.700	22.539	36.991	51.093	2301.291	1.000	52.857	230.169	267.281	34.704	6685.604
88.800	22.546	36.984	50.776	2187.371	1.000	48.848	215.742	268.549	34.700	6636.572
88.900	22.546	36.980	50.409	2066.732	1.000	44.827	199.002	270.002	34.700	6588.327
89.000	22.547	36.977	50.040	1890.302	1.000	42.419	179.101	271.672	34.700	6541.376
89.100	22.547	36.978	49.667	1729.512	1.000	40.022	161.979	273.106	34.700	6494.432
89.200	22.558	36.958	49.279	1623.564	1.000	36.438	149.161	274.147	34.700	6442.555
89.300	22.612	36.871	48.864	1505.965	1.000	32.447	138.861	274.785	34.700	6381.716
89.400	22.641	36.829	48.428	1362.751	1.000	28.095	121.740	276.157	34.700	6318.375
89.500	22.650	36.814	47.979	1152.957	1.000	26.422	102.708	277.755	34.700	6262.772
89.600	22.653	36.809	47.583	1031.674	1.000	23.614	88.181	279.125	34.700	6203.305
89.700	22.654	36.808	47.066	903.679	1.000	20.904	79.867	280.080	34.604	6141.374
89.800	22.654	36.808	46.576	815.684	1.000	18.022	69.161	281.046	34.600	6072.537
89.900	22.659	36.792	46.099	684.487	1.000	14.035	56.525	282.159	34.600	6006.576
90.000	22.714	36.704	45.554	554.357	1.000	11.624	43.214	283.293	34.600	5934.718
90.100	22.743	36.655	45.029	407.617	1.000	2.504	27.301	284.635	34.600	5857.873
90.200	22.753	36.640	44.507	222.798	1.000	0.035	9.647	286.075	34.600	5779.165
90.300	22.755	36.635	43.873	16.826	1.000	0.000	-5.026	287.288	34.600	5686.285
90.400	22.756	36.632	43.241	-153.120	1.000	0.000	-15.718	288.000	34.600	5620.317
90.500	22.757	36.630	42.613	-440.598	1.000	0.000	-29.269	289.021	34.600	5551.429
90.600	22.759	36.629	42.034	-621.932	1.000	0.000	-40.754	290.284	34.600	5468.604
90.700	22.790	36.564	41.342	-645.173	1.000	0.000	-43.626	290.676	34.600	5377.078
90.800	22.836	36.493	40.676	-741.897	1.000	0.000	-46.431	291.061	34.600	5292.793
90.900	22.849	36.469	40.006	-822.172	1.000	0.000	-51.503	291.535	34.600	5210.331
91.000	22.855	36.461	39.382	-941.262	1.000	0.000	-56.520	292.054	34.600	5121.097
91.100	22.856	36.457	38.677	-1018.281	1.000	0.000	-60.380	292.454	34.600	5029.234
91.200	22.855	36.455	38.024	-1082.724	1.000	0.000	-62.830	292.744	34.600	4945.492
91.300	22.858	36.453	37.303	-1113.465	1.000	0.000	-63.292	292.878	34.600	4862.239
91.400	22.884	36.398	36.616	-1112.374	1.000	0.000	-62.871	292.910	34.600	4775.783
91.500	22.929	36.321	35.943	-1156.213	1.000	0.000	-62.890	293.025	34.600	4680.741
91.600	22.942	36.293	35.292	-1149.137	1.000	0.000	-62.435	293.089	34.600	4595.828
91.700	22.949	36.282	34.579	-1182.385	1.000	0.000	-61.621	293.131	34.600	4508.992
91.800	22.952	36.279	33.884	-1165.030	1.000	0.000	-60.752	293.128	34.600	4415.517
91.900	22.951	36.278	33.230	-1177.469	1.000	0.000	-59.485	293.121	34.600	4335.625
92.000	22.952	36.278	32.519	-1165.570	1.000	0.000	-57.745	293.067	34.600	4255.465
92.100	22.961	36.258	31.836	-1168.093	1.000	0.000	-57.023	293.096	34.600	4166.137
92.200	23.007	36.169	31.174	-1203.039	1.000	0.000	-56.348	293.110	34.600	4079.782
92.300	23.031	36.121	30.474	-1183.667	1.000	0.000	-55.251	293.093	34.600	3989.678
92.400	23.039	36.108	29.857	-1197.293	1.000	0.000	-54.153	293.091	34.600	3905.746
92.500	23.040	36.102	29.185	-1210.432	1.000	0.000	-53.104	293.074	34.600	3815.271
92.600	23.042	36.099	28.472	-1183.359	1.000	0.000	-51.649	293.044	34.600	3731.940
92.700	23.043	36.100	27.803	-1188.138	1.000	0.000	-49.984	292.977	34.600	3633.217
92.800	23.047	36.084	27.110	-1223.238	1.000	0.000	-49.312	292.979	34.600	3552.093
92.900	23.086	36.002	26.470	-1206.272	1.000	0.000	-48.611	292.990	34.600	3461.119
93.000	23.114	35.944	25.747	-1210.066	1.000	0.000	-47.420	292.948	34.600	3377.484
93.100	23.122	35.926	25.057	-1232.435	1.000	0.000	-46.197	292.907	34.600	3294.117
93.200	23.123	35.922	24.380	-1212.369	1.000	0.000	-44.816	292.880	34.600	3197.800
93.300	23.124	35.920	23.723	-1203.978	1.000	0.000	-43.433	292.830	34.600	3115.773
93.400	23.125	35.921	23.055	-1228.747	1.000	0.000	-42.109	292.778	34.600	3022.549
93.500	23.125	35.917	22.392	-1217.028	1.000	0.000	-40.943	292.739	34.600	2945.906
93.600	23.153	35.853	21.685	-1203.367	1.000	0.000	-39.611	292.698	34.600	2854.192
93.700	23.186	35.784	21.002	-1207.764	1.000	0.000	-38.153	292.646	34.600	2769.375
93.800	23.195	35.760	20.324	-1223.914	1.000	0.000	-36.906	292.601	34.600	2677.678
93.900	23.198	35.753	19.715	-1206.729	1.000	0.000	-35.734	292.520	34.600	2592.558
94.000	23.199	35.750	19.033	-1204.194	1.000	0.000	-34.450	292.472	34.600	2500.422
94.100	23.200	35.750	18.341	-1194.526	1.000	0.000	-33.004	292.411	34.600	2420.330
94.200	23.201	35.748	17.702	-1217.318	1.000	0.792	-31.624	292.345	34.600	2326.975
94.300	23.218	35.695	17.037	-1161.921	1.000	1.961	-29.252	292.151	34.600	2270.853
94.400	23.248	35.619	16.444	-885.520	1.000	2.000	-22.346	291.699	34.600	2172.330
94.500	23.259	35.590	15.823	-705.861	1.000	1.614	-17.690	291.425	34.600	2089.948
94.600	23.263	35.580	15.147	-795.261	1.000	0.050	-17.528	291.421	34.600	2015.313
94.700	23.262	35.578	14.511	-962.737	1.000	0.000	-19.519	291.619	34.600	1925.161
94.800	23.264	35.577	13.871	-963.383	1.000	0.000	-19.756	291.690	34.600	1846.865
94.900	23.264	35.575	13.194	-1017.356	1.000	0.000	-19.666	291.714	34.600	1754.811
95.000	23.269	35.556	12.506	-1113.032	1.000	0.000	-20.032	291.792	34.600	1666.480
95.100	23.295	35.475	11.903	-1108.093	1.000	0.000	-19.332	291.748	34.600	1587.363
95.200	23.312	35.429	11.227	-1100.078	1.000	0.000	-17.898	291.683	34.600	1499.083
95.300	23.317	35.414	10.573	-1053.642	1.000	0.000	-16.091	291.575	34.600	1423.018
95.400	23.318	35.409	9.929	-1013.157	1.000	0.000	-14.343	291.488	34.600	1340.503
95.500	23.319	35.408	9.338	-995.579	1.000	0.000	-12.808	291.399	34.600	1258.565
95.600	23.319	35.407	8.724	-974.901	1.000	0.000	-11.847	291.374	34.600	1179.605
95.700	23.323	35.393	8.047	-901.175	1.000	0.000	-10.168	291.268	34.600	1106.814
95.800	23.344	35.316	7.481	-761.001	1.000	0.000	-7.885	291.132	34.600	1022.818
95.900	23.359	35.266	6.884	-642.396	1.000	0.000	-5.911	291.012	34.600	952.867
96.000	23.362	35.251	6.317	-567.497	1.000	0.000	-4.706	290.933	34.600	874.927
96.100	23.363	35.246	5.749	-517.599	1.000	0.000	-3.374	290.875	34.600	800.114
96.200	23.363	35.245	5.169	-421.024	1.000	0.000	-2.296	290.820	34.600	725.139
96.300	23.365	35.243	4.623	-315.856	1.000	0.000	-1.175	290.760	34.600	656.008
96.400	23.365	35.240	4.081	-281.912	1.000	1.991	-0.304	290.723	34.600	583.311
96.500	23.378	35.184	3.571	-184.818	1.000	4.777	0.285	290.702	34.600	530.443
96.600	23.392	35.118	3.111	16.897	1.000	7.184	1.364	290.654	34.600	484.304
96.700	23.399	35.094	2.689	433.996	1.000	7.986	3.219	290.547	34.600	389.712
96.800	23.399	35.086	2.207	615.328	1.000	8.392	5.384	290.352	34.600	333.091
96.900	23.400	35.084	1.795	507.249	1.000	8.795	4.604	290.465	34.600	280.659
97.000	23.401	35.082	1.347	596.624	1.000	8.413	4.915	290.461	34.600	222.851
97.100	23.400	35.083	0.908	771.296	1.000	8.400	5.484	290.454	34.600	167.285
97.200	23.407	35.038	0.518	867.395	1.000	8.009	5.603	290.465	34.600	112.317
97.300	23.420	34.968	0.202	592.460	1.000	7.606	4.971	290.550	34.600	69.636
97.400	23.423	34.940	0.259	185.814	1.000	4.824	5.240	290.548	34.600	50.160
97.500	23.425	34.932	0.399	674.540	1.000	0.167	5.268	290.562	34.600	33.590
97.600	23.425	34.931	0.523	781.439	1.000	0.000	5.512	290.563	34.600	57.276
97.700	23.426	34.930	0.633	698.718	1.000	0.000	5.860	290.569	34.600	74.658
97.800	23.426	34.929	0.404	576.966	1.000	0.000	6.145	290.562	34.600	91.642
97.900	23.426	34.912	0.252	896.168	1.000	0.000	6.243	290.567	34.600	67.116
98.000	23.435	34.841	0.406	1432.758	1.000	0.000	5.620	290.628	34.600	30.215
98.100	23.440	34.803	0.578	1258.803	1.000	0.000	5.472	290.673	34.600	56.801
98.200	23.443	34.786	0.560	891.457	1.000	0.000	5.949	290.646	34.600	87.119
98.300	23.444	34.782	0.242	993.843	1.000	0.000	6.541	290.631	34.600	84.069
98.400	23.445	34.782	0.235	1449.660	1.000	0.000	6.256	290.679	34.600	44.428
98.500	23.444	34.780	0.371	1629.040	1.000	0.000	5.270	290.783	34.600	19.491
98.600	23.446	34.769	0.543	1058.220	1.000	0.000	5.463	290.770	34.600	55.482
98.700	23.450	34.704	0.582	893.992	1.000	0.000	6.144	290.742	34.600	72.645
98.800	23.452	34.663	0.538	649.834	1.000	0.000	6.220	290.764	34.600	89.777
98.900	23.454	34.649	0.248	764.827	1.000	0.000	6.260	290.772	34.600	73.450
99.000	23.455	34.644	0.236	1188.180	1.000	0.000	5.862	290.826	34.600	50.597
99.100	23.455	34.644	0.399	1375.178	1.000	0.000	5.392	290.882	34.600	24.438
99.200	23.455	34.643	0.567	1097.611	1.000	0.000	5.345	290.903	34.600	52.045
99.300	23.455	34.641	0.583	1021.750	1.000	0.000	6.092	290.887	34.600	78.694
99.400	23.452	34.594	0.308	805.364	1.000	0.000	6.360	290.863	34.600	89.864
99.500	23.453	34.542	0.200	1058.027	1.000	0.000	6.266	290.894	34.600	49.160
99.600	23.452	34.523	0.366	1542.981	1.000	0.000	5.374	290.979	34.600	26.286
99.700	23.451	34.516	0.519	1166.977	1.000	0.000	5.354	290.997	34.600	48.165
99.800	23.451	34.513	0.618	1012.406	1.000	0.000	5.888	290.988	34.600	75.784
99.900	23.451	34.513	0.402	872.921	1.000	0.000	6.361	290.970	34.600	92.243
100.000	23.453	34.512	0.223	965.450	1.000	0.000	6.406	290.969	34.600	61.795
100.100	23.449	34.475	0.319	1499.536	1.000	0.000	5.561	291.032	34.600	27.970
100.200	23.445	34.424	0.500	1285.869	1.000	0.000	5.268	291.092	34.600	42.524
100.300	23.444	34.401	0.631	1014.249	1.000	0.000	5.705	291.062	34.600	70.608
100.400	23.442	34.394	0.441	928.683	1.000	0.000	6.245	291.048	34.600	91.909
100.500	23.442	34.392	0.198	917.163	1.000	0.000	6.465	291.063	34.600	68.151
100.600	23.444	34.392	0.302	1574.715	1.000	0.000	5.783	291.135	34.600	29.262
100.700	23.444	34.392	0.464	1453.787	1.000	0.000	5.179	291.179	34.600	30.983
100.800	23.441	34.377	0.595	981.084	1.000	0.000	5.643	291.171	34.600	63.361
100.900	23.433	34.324	0.516	958.077	1.000	0.000	6.171	291.152	34.600	85.922
101.000	23.429	34.295	0.229	752.160	1.000	0.000	6.404	291.153	34.600	78.269
101.100	23.426	34.285	0.260	1364.139	1.000	0.000	5.997	291.164	34.600	46.447
101.200	23.426	34.282	0.416	1521.902	1.000	0.000	5.161	291.257	34.600	22.285
101.300	23.426	34.282	0.561	1013.522	1.000	0.000	5.439	291.267	34.600	59.136
101.400	23.427	34.280	0.694	635.472	1.000	0.000	6.143	291.230	34.600	78.847
101.500	23.424	34.271	0.792	638.746	1.000	0.000	6.387	291.226	34.600	100.835
101.600	23.413	34.222	0.848	841.510	1.000	0.000	6.550	291.235	34.600	103.972
101.700	23.405	34.196	0.878	745.179	1.000	0.000	6.388	291.261	34.600	114.806
101.800	23.403	34.184	0.815	297.541	1.000	0.000	6.416	291.273	34.600	111.128
101.900	23.402	34.181	0.695	-449.570	1.000	0.000	6.276	291.291	34.600	98.762
102.000	23.402	34.179	0.505	-1022.722	1.000	0.000	5.227	291.351	34.600	73.093
102.100	23.403	34.179	0.278	-1454.304	1.000	0.000	3.761	291.501	34.600	54.085
102.200	23.402	34.179	0.091	-1119.390	1.000	0.000	3.190	291.568	34.600	42.615
102.300	23.391	34.145	0.008	-130.209	1.000	0.000	3.134	291.588	34.600	36.045
102.400	23.380	34.111	0.000	-11.664	1.000	0.000	2.940	291.619	34.600	-4.696
102.500	23.376	34.098	0.000	-11.429	1.000	0.000	2.668	291.665	34.600	2.717
102.600	23.376	34.092	0.019	-11.489	1.000	0.000	2.749	291.670	34.600	3.952
102.700	23.375	34.091	0.020	-11.507	1.000	0.000	2.571	291.704	34.600	0.237
102.800	23.376	34.089	0.003	-11.382	1.000	0.000	2.521	291.723	34.600	0.000
102.900	23.374	34.090	0.000	-11.423	1.000	0.000	2.566	291.742	34.600	0.000
103.000	23.365	34.066	0.000	-11.435	1.000	0.000	2.509	291.735	34.600	0.000
103.100	23.348	34.033	0.001	-11.497	1.000	0.000	2.427	291.755	34.600	0.000
103.200	23.342	34.017	0.000	-11.443	1.000	0.000	2.266	291.786	34.600	0.000
103.300	23.339	34.013	0.000	-11.435	1.000	0.000	2.107	291.820	34.600	1.981
103.400	23.340	34.013	0.000	-11.435	1.000	0.000	1.996	291.844	34.600	2.000
103.500	23.338	34.012	0.000	-11.316	1.000	0.000	1.956	291.859	34.600	2.000
103.600	23.338	34.011	0.001	-11.419	1.000	0.000	1.948	291.874	34.600	2.000
103.700	23.333	34.004	0.000	-11.372	1.000	0.000	1.883	291.890	34.600	2.000
103.800	23.314	33.967	0.000	-11.427	1.000	0.000	1.852	291.917	34.600	2.000
103.900	23.306	33.950	0.002	-11.564	1.000	0.000	1.916	291.921	34.600	2.000
104.000	23.302	33.943	0.000	-11.388	1.000	0.000	1.931	291.944	34.600	2.000
104.100	23.299	33.942	0.000	-11.428	1.000	0.000	1.934	291.948	34.600	1.009
104.200	23.302	33.939	0.001	-11.496	1.000	0.000	1.931	291.975	34.600	0.011
104.300	23.300	33.940	0.000	-11.626	1.000	0.000	1.931	291.972	34.600	0.000
104.400	23.296	33.936	0.000	-11.393	1.000	0.000	1.932	291.995	34.600	0.000
104.500	23.273	33.909	0.000	-11.428	1.000	0.000	1.921	291.998	34.600	0.000
104.600	23.261	33.891	0.000	-11.174	1.000	0.000	1.937	292.014	34.600	0.000
104.700	23.257	33.885	0.000	-11.277	1.000	0.000	1.861	292.045	34.600	0.000
104.800	23.256	33.883	0.000	-11.291	1.000	0.000	0.981	292.122	34.600	0.000
104.900	23.255	33.883	0.000	-11.540	1.000	0.000	0.948	292.123	34.600	0.000
105.000	23.256	33.882	0.000	-11.448	1.000	0.000	0.939	292.154	34.600	0.000
105.100	23.255	33.882	0.000	-11.633	1.000	0.000	0.941	292.154	34.600	0.000
105.200	23.241	33.866	0.000	-11.593	1.000	0.000	0.947	292.162	34.600	0.000
105.300	23.220	33.847	0.000	-11.398	1.000	0.000	0.944	292.185	34.600	0.000
105.400	23.213	33.837	0.000	-11.496	1.000	0.000	0.926	292.200	34.600	0.000
105.500	23.211	33.836	0.000	-11.235	1.000	0.000	0.939	292.212	34.600	0.000
105.600	23.210	33.834	0.000	-11.623	1.000	0.000	0.933	292.227	34.600	0.000
105.700	23.210	33.833	0.000	-11.517	1.000	0.000	0.931	292.243	34.600	0.000
105.800	23.209	33.833	0.001	-11.575	1.000	0.000	0.944	292.243	34.600	0.000
105.900	23.195	33.822	0.001	-11.380	1.000	0.000	0.927	292.266	34.600	0.000
106.000	23.174	33.805	0.000	-11.297	1.000	0.000	0.931	292.266	34.600	0.000
106.100	23.166	33.799	0.000	-11.689	1.000	0.000	0.920	292.278	34.600	0.000
106.200	23.163	33.796	0.000	-11.523	1.000	0.000	0.928	292.305	34.600	0.000
106.300	23.163	33.794	0.000	-11.507	1.000	0.000	0.930	292.313	34.600	0.000
106.400	23.163	33.797	0.001	-11.237	1.000	0.000	0.925	292.321	34.600	0.000
106.500	23.163	33.796	0.000	-11.624	1.000	0.000	0.915	292.339	34.600	0.000
106.600	23.155	33.792	0.000	-11.584	1.000	0.000	0.931	292.355	34.600	0.000
106.700	23.131	33.778	0.000	-11.445	1.000	0.000	0.922	292.356	34.600	0.000
106.800	23.129	33.777	0.000	-11.435	1.000	0.000	0.929	292.374	34.600	0.000
106.900	23.129	33.777	0.000	-11.435	1.000	0.000	0.930	292.375	34.600	0.000
107.000	23.129	33.777	0.000	-11.435	1.000	0.000	0.930	292.375	34.600	0.000
107.100	23.129	33.777	0.000	-11.435	1.000	0.000	0.930	292.375	34.600	0.000
107.200	23.129	33.777	0.000	-11.435	1.000	0.000	0.930	292.375	34.600	0.000
107.300	23.129	33.777	0.000	-11.435	1.000	0.000	0.930	292.375	34.600	0.000
107.400	23.129	33.777	0.000	-11.435	1.000	0.000	0.930	292.375	34.600	0.000
107.500	23.129	33.777	0.000	-11.435	1.000	0.000	0.930	292.375	34.600	0.000
107.600	23.129	33.777	0.000	-11.435	1.000	0.000	0.930	292.375	34.600	0.000
107.700	23.129	33.777	0.000	-11.435	1.000	0.000	0.930	292.375	34.600	0.000
107.800	23.129	33.777	0.000	-11.435	1.000	0.000	0.930	292.375	34.600	0.000
107.900	23.129	33.777	0.000	-11.435	1.000	0.000	0.930	292.375	34.600	0.000
108.000	23.129	33.777	0.000	-11.435	1.000	0.000	0.930	292.375	34.600	0.000
108.100	23.129	33.777	0.000	-11.435	1.000	0.000	0.930	292.375	34.600	0.000
108.200	23.129	33.777	0.000	-11.435	1.000	0.000	0.930	292.375	34.600	0.000
108.300	23.129	33.777	0.000	-11.435	1.000	0.000	0.930	292.375	34.600	0.000
108.400	23.129	33.777	0.000	-11.435	1.000	0.000	0.930	292.375	34.600	0.000
108.500	23.129	33.777	0.000	-11.435	1.000	0.000	0.930	292.375	34.600	0.000
108.600	23.129	33.777	0.000	-11.435	1.000	0.000	0.930	292.375	34.600	0.000
108.700	23.129	33.777	0.000	-11.435	1.000	0.000	0.930	292.375	34.600	0.000
108.800	23.129	33.777	0.000	-11.435	1.000	0.000	0.930	292.375	34.600	0.000
108.900	23.129	33.777	0.000	-11.435	1.000	0.000	0.930	292.375	34.600	0.000
109.000	23.129	33.777	0.000	-11.435	1.000	0.000	0.930	292.375	34.600	0.000
109.100	23.129	33.777	0.000	-11.435	1.000	0.000	0.930	292.375	34.600	0.000
109.200	23.129	33.777	0.000	-11.435	1.000	0.000	0.930	292.375	34.600	0.000
109.300	23.129	33.777	0.000	-11.435	1.000	0.000	0.930	292.375	34.600	0.000
109.400	23.129	33.777	0.000	-11.435	1.000	0.000	0.930	292.375	34.600	0.000
109.500	23.129	33.777	0.000	-11.435	1.000	0.000	0.930	292.375	34.600	0.000
109.600	23.129	33.777	0.000	-11.435	1.000	0.000	0.930	292.375	34.600	0.000
109.700	23.129	33.777	0.000	-11.435	1.000	0.000	0.930	292.375	34.600	0.000
109.800	23.129	33.777	0.000	-11.435	1.000	0.000	0.930	292.375	34.600	0.000
109.900	23.129	33.777	0.000	-11.435	1.000	0.000	0.930	292.375	34.600	0.000
110.000	23.129	33.777	0.000	-11.435	1.000	0.000	0.930	292.375	34.600	0.000
110.100	23.129	33.777	0.000	-11.435	1.000	0.000	0.930	292.375	34.600	0.000
110.200	23.129	33.777	0.000	-11.435	1.000	0.000	0.930	292.375	34.600	0.000
110.300	23.129	33.777	0.000	-11.435	1.000	0.000	0.930	292.375	34.600	0.000
110.400	23.129	33.777	0.000	-11.435	1.000	0.000	0.930	292.375	34.600	0.000
110.500	23.129	33.777	0.000	-11.435	1.000	0.000	0.930	292.375	34.600	0.000
110.600	23.129	33.777	0.000	-11.435	1.000	0.000	0.930	292.375	34.600	0.000
110.700	23.129	33.777	0.000	-11.435	1.000	0.000	0.930	292.375	34.600	0.000
110.800	23.129	33.777	0.000	-11.435	1.000	0.000	0.930	292.375	34.600	0.000
110.900	23.129	33.777	0.000	-11.435	1.000	0.000	0.930	292.375	34.600	0.000
111.000	23.129	33.777	0.000	-11.435	1.000	0.000	0.930	292.375	34.600	0.000
111.100	23.129	33.777	0.000	-11.435	1.000	0.000	0.930	292.375	34.600	0.000
111.200	23.129	33.777	0.000	-11.435	1.000	0.000	0.930	292.375	34.600	0.000
111.300	23.129	33.777	0.000	-11.435	1.000	0.000	0.930	292.375	34.600	0.000
111.400	23.129	33.777	0.000	-11.435	1.000	0.000	0.930	292.375	34.600	0.000
111.500	23.129	33.777	0.000	-11.435	1.000	0.000	0.930	292.375	34.600	0.000
111.600	23.129	33.777	0.000	-11.435	1.000	0.000	0.930	292.375	34.600	0.000
111.700	23.129	33.777	0.000	-11.435	1.000	0.000	0.930	292.375	34.600	0.000
111.800	23.129	33.777	0.000	-11.435	1.000	0.000	0.930	292.375	34.600	0.000
111.900	23.129	33.777	0.000	-11.435	1.000	0.000	0.930	292.375	34.600	0.000
112.000	23.129	33.777	0.000	-11.435	1.000	0.000	0.930	292.375	34.600	0.000
112.100	23.129	33.777	0.000	-11.435	1.000	0.000	0.930	292.375	34.600	0.000
112.200	23.129	33.777	0.000	-11.435	1.000	0.000	0.930	292.375	34.600	0.000
112.300	23.129	33.777	0.000	-11.435	1.000	0.000	0.930	292.375	34.600	0.000
112.400	23.129	33.777	0.000	-11.435	1.000	0.000	0.930	292.375	34.600	0.000
112.500	23.129	33.777	0.000	-11.435	1.000	0.000	0.930	292.375	34.600	0.000
112.600	23.129	33.777	0.000	-11.435	1.000	0.000	0.930	292.375	34.600	0.000
112.700	23.129	33.777	0.000	-11.435	1.000	0.000	0.930	292.375	34.600	0.000
112.800	23.129	33.777	0.000	-11.435	1.000	0.000	0.930	292.375	34.600	0.000
112.900	23.129	33.777	0.000	-11.435	1.000	0.000	0.930	292.375	34.600	0.000
113.000	23.129	33.777	0.000	-11.435	1.000	0.000	0.930	292.375	34.600	0.000
113.100	23.129	33.777	0.000	-11.435	1.000	0.000	0.930	292.375	34.600	0.000
113.200	23.129	33.777	0.000	-11.435	1.000	0.000	0.930	292.375	34.600	0.000
113.300	23.129	33.777	0.000	-11.435	1.000	0.000	0.930	292.375	34.600	0.000
113.400	23.129	33.777	0.000	-11.435	1.000	0.000	0.930	292.375	34.600	0.000
113.500	23.129	33.777	0.000	-11.435	1.000	0.000	0.930	292.375	34.600	0.000
113.600	23.129	33.777	0.000	-11.435	1.000	0.000	0.930	292.375	34.600	0.000
113.700	23.129	33.777	0.000	-11.435	1.000	0.000	0.930	292.375	34.600	0.000
113.800	23.129	33.777	0.000	-11.435	1.000	0.000	0.930	292.375	34.600	0.000
113.900	23.129	33.777	0.000	-11.435	1.000	0.000	0.930	292.375	34.600	0.000
114.000	23.129	33.777	0.000	-11.435	1.000	0.000	0.930	292.375	34.600	0.000
114.100	23.129	33.777	0.000	-11.435	1.000	0.000	0.930	292.375	34.600	0.000
114.200	23.129	33.777	0.000	-11.435	1.000	0.000	0.930	292.375	34.600	0.000
114.300	23.129	33.777	0.000	-11.435	1.000	0.000	0.930	292.375	34.600	0.000
114.400	23.129	33.777	0.000	-11.435	1.000	0.000	0.930	292.375	34.600	0.000
114.500	23.129	33.777	0.000	-11.435	1.000	0.000	0.930	292.375	34.600	0.000
114.600	23.129	33.777	0.000	-11.435	1.000	0.000	0.930	292.375	34.600	0.000
114.700	23.129	33.777	0.000	-11.435	1.000	0.000	0.930	292.375	34.600	0.000
114.800	23.129	33.777	0.000	-11.435	1.000	0.000	0.930	292.375	34.600	0.000
114.900	23.129	33.777	0.000	-11.435	1.000	0.000	0.930	292.375	34.600	0.000
115.000	23.129	33.777	0.000	-11.435	1.000	0.000	0.930	292.375	34.600	0.000
115.100	23.129	33.777	0.000	-11.435	1.000	0.000	0.930	292.375	34.600	0.000
115.200	23.129	33.777	0.000	-11.435	1.000	0.000	0.930	292.375	34.600	0.000
115.300	23.129	33.777	0.000	-11.435	1.000	0.000	0.930	292.375	34.600	0.000
115.400	23.129	33.777	0.000	-11.435	1.000	0.000	0.930	292.375	34.600	0.000
115.500	23.129	33.777	0.000	-11.435	1.000	0.000	0.930	292.375	34.600	0.000
115.600	23.129	33.777	0.000	-11.435	1.000	0.000	0.930	292.375	34.600	0.000
115.700	23.129	33.777	0.000	-11.435	1.000	0.000	0.930	292.375	34.600	0.000
115.800	23.129	33.777	0.000	-11.435	1.000	0.000	0.930	292.375	34.600	0.000
115.900	23.129	33.777	0.000	-11.435	1.000	0.000	0.930	292.375	34.600	0.000
116.000	23.129	33.777	0.000	-11.435	1.000	0.000	0.930	292.375	34.600	0.000
116.100	23.129	33.777	0.000	-11.435	1.000	0.000	0.930	292.375	34.600	0.000
116.200	23.129	33.777	0.000	-11.435	1.000	0.000	0.930	292.375	34.600	0.000
116.300	23.129	33.777	0.000	-11.435	1.000	0.000	0.930	292.375	34.600	0.000
116.400	23.129	33.777	0.000	-11.435	1.000	0.000	0.930	292.375	34.600	0.000
116.500	23.129	33.777	0.000	-11.435	1.000	0.000	0.930	292.375	34.600	0.000
116.600	23.129	33.777	0.000	-11.435	1.000	0.000	0.930	292.375	34.600	0.000
116.700	23.129	33.777	0.000	-11.435	1.000	0.000	0.930	292.375	34.600	0.000
