Timestamp [sec]	Dyno Speed [mph]	Dyno Tractive Effort [N]	Cell Temp [C]	Cell RH [%]	Phase #	HV Battery Voltage w/500A max clamp [V]	HV Battery Current w/500A max clamp [A]	HV Battery Voltage w/200A max clamp [V]	HV Battery Current w/200A max clamp [A]	DCDC Outlet Voltage [V]	DCDC Outlet Current [A]	Accelerator Pedal Position [%]	Inverter Cooling Hose Temp [C]
-10.000000	-0.005786	-2.738338	38.957928	36.201645	1.000000	385.420000	1.690000	385.650000	1.620000	14.049000	40.570000	0.000000	0.000000
-9.000000	-0.005786	-2.738338	38.957604	36.191273	1.000000	385.460000	1.600000	385.700000	1.550000	14.109000	34.820000	0.000000	50.040580
-8.000000	-0.005786	-2.738338	38.959549	36.180900	1.000000	385.270000	3.660000	385.520000	3.540000	14.253000	43.830000	0.000000	50.052040
-7.000000	-0.005462	-2.738338	38.959873	36.161452	1.000000	385.210000	4.390000	385.420000	4.260000	14.305000	43.420000	0.000000	50.054854
-6.000000	-0.004490	-2.738338	38.957604	36.146866	1.000000	385.190000	4.600000	385.410000	4.470000	14.359000	42.440000	0.000000	50.056262
-5.000000	-0.006759	-2.738338	38.959224	36.141031	1.000000	385.170000	4.430000	385.400000	4.320000	14.360000	41.300000	0.000000	50.031332
-4.000000	-0.004490	-2.738338	38.959224	36.137790	1.000000	385.150000	4.540000	385.390000	4.430000	14.360000	41.970000	0.000000	50.019873
-3.000000	-0.006111	-2.738338	38.959224	36.136818	1.000000	385.130000	4.480000	385.350000	4.380000	14.360000	42.340000	0.000000	49.953527
-2.000000	-0.006111	-2.738338	38.958252	36.143625	1.000000	385.120000	4.550000	385.370000	4.410000	14.358000	43.850000	0.000000	49.933623
-1.000000	-0.005462	-2.738338	38.958900	36.159831	1.000000	385.150000	4.530000	385.340000	4.390000	14.358000	44.690000	0.000000	49.900851
0.000000	-0.006111	-2.738338	38.959873	36.170204	1.000000	385.090000	4.450000	385.330000	4.340000	14.358000	44.900000	0.000000	49.815197
1.000000	-0.005462	-2.738338	38.958252	36.176038	1.000000	385.140000	4.230000	385.350000	4.120000	14.362000	40.540000	0.000000	49.603454
2.000000	0.510861	820.621600	38.957604	36.184142	1.000000	384.910000	6.720000	385.150000	6.620000	14.368000	36.610000	2.000000	49.313237
3.000000	1.807666	1182.152440	38.957928	36.192245	1.000000	384.300000	14.050000	384.520000	13.930000	14.370000	34.380000	11.500000	49.079292
4.000000	4.484898	2474.571642	38.955011	36.198079	1.000000	383.220000	25.870000	383.460000	25.620000	14.370000	33.610000	18.500000	48.917339
5.000000	7.437309	2272.326762	38.952419	36.205859	1.000000	382.520000	32.960000	382.750000	32.660000	14.371000	33.490000	19.000000	48.816738
6.000000	10.366058	2453.092583	38.948854	36.223686	1.000000	381.200000	47.170000	381.490000	46.750000	14.371000	32.780000	24.000000	48.828811
7.000000	13.495438	2461.636619	38.948530	36.230493	1.000000	380.430000	54.830000	380.670000	54.360000	14.376000	28.420000	26.000000	48.935850
8.000000	16.428401	2270.682847	38.946261	36.242486	1.000000	379.890000	59.540000	380.130000	59.050000	14.377000	27.540000	26.500000	49.060585
9.000000	19.112764	2108.238090	38.944965	36.250913	1.000000	379.490000	61.920000	379.730000	61.410000	14.302000	27.210000	26.500000	49.201804
10.000000	21.532969	1925.482390	38.938807	36.263555	1.000000	379.580000	59.430000	379.840000	58.920000	14.302000	27.530000	25.000000	49.295942
11.000000	23.629379	1661.699118	38.932001	36.277493	1.000000	379.310000	61.420000	379.580000	60.900000	14.201000	27.100000	25.500000	49.353669
12.000000	25.537150	1563.367146	38.926816	36.286893	1.000000	379.560000	57.250000	379.820000	56.750000	14.202000	26.920000	23.000000	49.394298
13.000000	27.103623	1215.939164	38.923899	36.296941	1.000000	380.380000	46.750000	380.640000	46.360000	14.049000	26.500000	19.000000	49.458458
14.000000	28.152801	838.380171	38.913853	36.310554	1.000000	381.640000	31.450000	381.910000	31.140000	14.050000	26.870000	13.500000	49.527641
15.000000	28.884340	768.470670	38.900565	36.323520	1.000000	381.060000	38.470000	381.310000	38.150000	13.964000	26.610000	16.000000	49.597428
16.000000	29.672601	770.352516	38.892463	36.334865	1.000000	381.240000	35.860000	381.500000	35.550000	13.811000	26.300000	16.000000	49.660169
17.000000	30.495542	781.448918	38.883065	36.346858	1.000000	380.900000	39.830000	381.170000	39.470000	13.771000	22.700000	16.500000	49.727935
18.000000	31.274727	737.431025	38.868157	36.359499	1.000000	380.780000	40.940000	381.030000	40.590000	13.709000	26.210000	16.500000	49.801329
19.000000	32.010156	756.725355	38.845795	36.384457	1.000000	380.810000	40.170000	381.050000	39.790000	13.657000	25.950000	16.500000	49.829079
20.000000	32.742668	729.903641	38.829591	36.404554	1.000000	380.770000	39.850000	381.060000	39.500000	13.512000	23.720000	16.500000	49.861854
21.000000	33.456057	712.642572	38.813711	36.425623	1.000000	380.750000	40.130000	381.000000	39.790000	13.508000	25.300000	16.500000	49.859038
22.000000	34.113373	635.508521	38.793941	36.451553	1.000000	381.070000	35.740000	381.320000	35.410000	13.408000	24.680000	15.000000	49.860446
23.000000	34.626132	573.515763	38.763802	36.497905	1.000000	381.250000	33.330000	381.480000	33.020000	13.307000	23.850000	14.500000	49.839738
24.000000	35.072770	485.739561	38.739819	36.540367	1.000000	381.710000	27.720000	381.950000	27.460000	13.217000	23.040000	13.000000	49.816213
25.000000	35.384249	431.057889	38.721022	36.574725	1.000000	381.630000	28.740000	381.890000	28.490000	13.167000	22.740000	13.000000	49.795504
26.000000	35.654890	412.369217	38.697688	36.610380	1.000000	382.160000	22.800000	382.390000	22.600000	13.166000	23.170000	10.500000	49.798321
27.000000	35.750505	245.879981	38.661715	36.676828	1.000000	382.350000	20.890000	382.550000	20.690000	13.165000	23.170000	10.500000	49.760520
28.000000	35.677254	40.542561	38.634816	36.730958	1.000000	384.510000	-4.580000	384.740000	-4.580000	13.166000	23.250000	2.000000	49.748452
29.000000	35.025448	-218.683360	38.611158	36.781199	1.000000	383.790000	5.200000	384.040000	5.100000	13.165000	23.530000	5.000000	49.756904
30.000000	34.681232	9.178478	38.586852	36.829496	1.000000	383.080000	14.030000	383.300000	13.900000	13.165000	23.350000	8.500000	49.741220
31.000000	34.581403	113.458648	38.561573	36.889785	1.000000	383.030000	14.310000	383.280000	14.170000	13.166000	23.480000	8.500000	49.741220
32.000000	34.485139	104.092684	38.519442	36.977301	1.000000	382.710000	18.060000	382.980000	17.880000	13.166000	23.140000	9.500000	49.742628
33.000000	34.581727	351.328209	38.496432	37.030460	1.000000	381.310000	34.560000	381.570000	34.280000	13.165000	23.510000	14.500000	49.734786
34.000000	35.017021	495.603028	38.472126	37.080701	1.000000	381.740000	28.190000	381.990000	27.950000	13.165000	23.520000	12.500000	49.773997
35.000000	35.338548	430.538759	38.447495	37.138073	1.000000	381.380000	32.710000	381.600000	32.390000	13.165000	23.550000	14.000000	49.762539
36.000000	35.657807	395.800325	38.409902	37.218134	1.000000	381.710000	28.200000	381.970000	27.950000	13.165000	23.520000	12.500000	49.778223
37.000000	35.826674	273.004509	38.386243	37.276479	1.000000	382.210000	21.960000	382.450000	21.740000	13.165000	23.610000	10.500000	49.803158
38.000000	36.020822	424.028007	38.362585	37.326720	1.000000	381.520000	30.090000	381.770000	29.800000	13.165000	23.730000	13.000000	49.808794
39.000000	36.333274	449.335584	38.342168	37.377933	1.000000	381.490000	30.370000	381.700000	30.090000	13.165000	23.650000	13.500000	49.846593
40.000000	36.636002	422.470617	38.305870	37.463181	1.000000	381.480000	30.150000	381.700000	29.870000	13.166000	23.740000	13.000000	49.881574
41.000000	36.875852	343.649414	38.283833	37.521525	1.000000	382.150000	21.680000	382.420000	21.480000	13.165000	23.750000	10.000000	49.895051
42.000000	36.877472	181.853984	38.265360	37.573711	1.000000	382.420000	19.020000	382.610000	18.870000	13.165000	23.550000	10.000000	49.905710
43.000000	36.831771	190.873863	38.246563	37.622331	1.000000	382.500000	17.900000	382.700000	17.710000	13.165000	23.510000	10.000000	49.900687
44.000000	36.828854	207.399492	38.219988	37.690076	1.000000	382.180000	21.340000	382.450000	21.160000	13.165000	23.660000	10.500000	49.930643
45.000000	36.877148	227.126420	38.194061	37.765275	1.000000	382.190000	21.590000	382.430000	21.430000	13.166000	23.650000	10.500000	49.939893
46.000000	36.877472	218.063281	38.175913	37.814544	1.000000	382.430000	18.510000	382.640000	18.310000	13.165000	23.490000	10.500000	49.963416
47.000000	36.974708	331.233561	38.157116	37.860571	1.000000	381.580000	28.460000	381.840000	28.210000	13.164000	23.520000	12.500000	49.955575
48.000000	37.220716	427.878219	38.136050	37.922805	1.000000	381.250000	31.770000	381.510000	31.490000	13.165000	23.430000	13.000000	49.949757
49.000000	37.540947	468.759691	38.111096	37.996708	1.000000	380.360000	42.350000	380.610000	41.980000	13.165000	23.380000	16.000000	49.969053
50.000000	38.172333	811.947803	38.096836	38.050190	1.000000	379.080000	55.920000	379.360000	55.430000	13.164000	23.520000	20.000000	49.976894
51.000000	39.049403	858.907436	38.082252	38.098162	1.000000	378.940000	56.560000	379.190000	56.060000	13.165000	23.520000	20.000000	49.956189
52.000000	39.856463	839.007453	38.066372	38.149052	1.000000	379.080000	53.550000	379.350000	53.120000	13.165000	23.310000	20.000000	49.978303
53.000000	40.609720	784.693481	38.040121	38.242079	1.000000	379.240000	50.590000	379.510000	50.160000	13.164000	23.650000	19.500000	49.982530
54.000000	41.303986	754.562313	38.026186	38.299775	1.000000	379.260000	50.460000	379.490000	50.040000	13.165000	23.560000	19.000000	50.018122
55.000000	41.909443	670.420006	38.012574	38.358768	1.000000	379.510000	46.660000	379.740000	46.260000	13.165000	23.450000	18.500000	50.016712
56.000000	42.472116	669.771094	37.999611	38.411602	1.000000	379.350000	47.980000	379.610000	47.560000	13.165000	23.340000	18.500000	50.055915
57.000000	43.008536	661.270342	37.979193	38.498470	1.000000	379.330000	47.910000	379.570000	47.500000	13.165000	23.330000	18.500000	50.055915
58.000000	43.544631	650.282092	37.962989	38.583718	1.000000	379.390000	46.700000	379.620000	46.300000	13.164000	23.380000	18.500000	50.073622
59.000000	44.030488	625.104293	37.953591	38.651786	1.000000	379.940000	39.330000	380.230000	38.970000	13.164000	23.270000	16.500000	50.082255
60.000000	44.347154	467.050888	37.939007	38.714669	1.000000	380.680000	31.300000	380.930000	31.020000	13.165000	23.070000	14.500000	50.107185
61.000000	44.498518	423.508877	37.921831	38.816123	1.000000	380.330000	35.710000	380.550000	35.400000	13.166000	23.080000	15.500000	50.112823
62.000000	44.693315	413.234433	37.907895	38.909150	1.000000	381.100000	26.220000	381.330000	25.970000	13.165000	23.280000	13.000000	50.145593
63.000000	44.791199	369.216555	37.898497	38.990508	1.000000	380.560000	32.810000	380.810000	32.530000	13.165000	23.050000	15.000000	50.142774
64.000000	44.937702	375.965242	37.889422	39.063439	1.000000	380.240000	36.620000	380.480000	36.320000	13.165000	23.220000	15.500000	50.153433
65.000000	45.153890	452.861340	37.877431	39.146417	1.000000	380.020000	38.750000	380.270000	38.400000	13.165000	23.360000	16.500000	50.141982
66.000000	45.429069	475.378596	37.861875	39.280934	1.000000	379.970000	38.560000	380.240000	38.230000	13.165000	23.080000	16.500000	50.163301
67.000000	45.712026	475.097400	37.852152	39.363264	1.000000	379.980000	38.690000	380.210000	38.360000	13.165000	23.150000	16.500000	50.163301
68.000000	45.987205	497.138787	37.844374	39.435870	1.000000	379.820000	40.040000	380.080000	39.690000	13.166000	23.230000	17.000000	50.184001
69.000000	46.260439	490.022382	37.835624	39.514635	1.000000	379.690000	41.630000	379.920000	41.270000	13.166000	23.120000	17.000000	50.161891
70.000000	46.542424	481.326958	37.819420	39.632621	1.000000	379.780000	39.750000	380.060000	39.410000	13.165000	23.180000	16.500000	50.169731
71.000000	46.742730	407.264441	37.807753	39.713979	1.000000	380.440000	31.830000	380.690000	31.560000	13.165000	23.250000	15.000000	50.164710
72.000000	46.844504	369.800576	37.799327	39.778482	1.000000	380.390000	32.810000	380.610000	32.500000	13.165000	23.290000	15.000000	50.206729
73.000000	46.967346	368.156665	37.792845	39.842013	1.000000	380.410000	32.490000	380.640000	32.210000	13.166000	23.220000	15.000000	50.206729
74.000000	47.085002	367.659166	37.775993	39.948653	1.000000	380.300000	33.430000	380.550000	33.120000	13.165000	23.240000	15.000000	50.195279
75.000000	47.183534	356.043637	37.766594	40.030011	1.000000	380.330000	33.070000	380.560000	32.750000	13.165000	23.310000	15.000000	50.204529
76.000000	47.236690	325.674547	37.758168	40.083169	1.000000	380.860000	26.560000	381.090000	26.310000	13.166000	23.300000	12.500000	50.210959
77.000000	47.184507	216.614044	37.752659	40.135679	1.000000	381.050000	25.010000	381.260000	24.790000	13.165000	23.290000	13.000000	50.235887
78.000000	47.087595	228.575657	37.740992	40.198238	1.000000	381.070000	24.790000	381.320000	24.580000	13.166000	23.140000	12.500000	50.235887
79.000000	46.994572	209.043402	37.732241	40.265658	1.000000	381.150000	24.170000	381.400000	23.950000	13.166000	23.240000	12.500000	50.232278
80.000000	46.915811	215.359480	37.724463	40.304230	1.000000	381.130000	24.430000	381.360000	24.220000	13.165000	23.190000	12.500000	50.220829
81.000000	46.841587	214.386112	37.717333	40.345719	1.000000	381.080000	24.840000	381.330000	24.640000	13.166000	22.890000	12.500000	50.255797
82.000000	46.821167	334.910730	37.711824	40.385588	1.000000	380.440000	32.500000	380.680000	32.230000	13.166000	23.080000	14.500000	50.240117
83.000000	46.911597	367.875470	37.706315	40.450415	1.000000	380.300000	33.630000	380.550000	33.350000	13.165000	23.310000	15.000000	50.261437
84.000000	47.008833	335.516382	37.702750	40.500008	1.000000	380.500000	31.220000	380.710000	30.930000	13.165000	23.190000	14.000000	50.253597
85.000000	47.038652	301.275449	37.701453	40.542470	1.000000	380.560000	30.230000	380.810000	29.970000	13.165000	23.060000	14.000000	50.245758
86.000000	47.058100	304.520010	37.699185	40.586552	1.000000	380.580000	30.210000	380.810000	29.940000	13.166000	23.290000	14.000000	50.265668
87.000000	47.086946	293.185677	37.696268	40.655593	1.000000	381.100000	23.680000	381.360000	23.460000	13.166000	23.290000	12.500000	50.264257
88.000000	46.936230	128.491779	37.697240	40.697731	1.000000	381.680000	17.120000	381.920000	16.960000	13.166000	22.940000	10.500000	50.251399
89.000000	46.644197	31.998552	37.695944	40.736627	1.000000	382.110000	12.640000	382.340000	12.530000	13.166000	22.960000	9.500000	50.260649
90.000000	46.333690	58.950034	37.695944	40.775523	1.000000	381.630000	18.840000	381.890000	18.650000	13.166000	23.040000	11.500000	50.271309
91.000000	46.259142	283.451995	37.696592	40.837757	1.000000	380.760000	28.830000	381.030000	28.570000	13.166000	22.950000	13.500000	50.274130
92.000000	46.260763	276.876352	37.698861	40.918143	1.000000	380.770000	28.280000	381.030000	28.000000	13.166000	23.160000	14.000000	50.271309
93.000000	46.327856	368.783947	37.697564	40.979405	1.000000	379.970000	37.770000	380.200000	37.450000	13.165000	23.000000	16.500000	50.286201
94.000000	46.598496	499.063893	37.695944	41.020894	1.000000	379.570000	41.640000	379.820000	41.270000	13.166000	22.930000	17.500000	50.281970
95.000000	46.890529	500.318457	37.695620	41.098038	1.000000	379.620000	40.250000	379.870000	39.910000	13.166000	23.170000	17.000000	50.274130
96.000000	47.139454	482.970869	37.693999	41.190417	1.000000	379.550000	40.820000	379.770000	40.470000	13.165000	23.210000	17.000000	50.292630
97.000000	47.423708	490.260317	37.689462	41.242279	1.000000	379.070000	45.940000	379.340000	45.530000	13.165000	22.840000	18.500000	50.284005
98.000000	47.743615	546.607533	37.689138	41.295113	1.000000	379.120000	44.570000	379.400000	44.190000	13.166000	23.270000	18.000000	50.312540
99.000000	48.056392	468.283822	37.682980	41.357671	1.000000	379.400000	40.840000	379.630000	40.490000	13.166000	22.940000	17.500000	50.317558
100.000000	48.300455	480.050764	37.678767	41.460098	1.000000	379.270000	42.580000	379.500000	42.210000	13.166000	23.040000	17.500000	50.342486
101.000000	48.545490	475.356965	37.673258	41.514229	1.000000	379.140000	43.310000	379.430000	42.930000	13.165000	23.120000	17.500000	50.358789
102.000000	48.745472	442.738310	37.667100	41.571277	1.000000	379.510000	38.890000	379.730000	38.550000	13.165000	23.070000	17.000000	50.363806
103.000000	48.941241	434.345711	37.662887	41.623138	1.000000	379.900000	34.270000	380.140000	33.960000	13.165000	23.280000	15.000000	50.368039
104.000000	48.941890	289.768073	37.656081	41.700607	1.000000	379.780000	35.880000	380.020000	35.580000	13.166000	23.190000	15.500000	50.368039
105.000000	49.015141	349.403103	37.649276	41.747931	1.000000	380.130000	31.480000	380.380000	31.200000	13.166000	23.100000	14.500000	50.388733
106.000000	48.990508	298.182301	37.643118	41.786827	1.000000	380.030000	33.160000	380.310000	32.860000	13.166000	23.040000	14.500000	50.391555
107.000000	48.990832	294.656545	37.639553	41.831234	1.000000	380.130000	31.770000	380.390000	31.480000	13.166000	23.080000	15.000000	50.407859
108.000000	49.082234	385.525882	37.632099	41.902868	1.000000	379.670000	37.220000	379.910000	36.920000	13.166000	23.090000	16.000000	50.402215
109.000000	49.184332	393.572393	37.627562	41.950516	1.000000	379.690000	36.120000	379.960000	35.820000	13.166000	22.980000	16.000000	50.414287
110.000000	49.284161	390.025006	37.622701	42.005619	1.000000	379.690000	36.340000	379.950000	36.020000	13.166000	23.050000	16.000000	50.423536
111.000000	49.382046	369.065142	37.618812	42.044839	1.000000	379.710000	35.720000	379.980000	35.410000	13.166000	23.000000	16.000000	50.406448
112.000000	49.479930	369.627533	37.615895	42.077577	1.000000	379.840000	34.200000	380.070000	33.910000	13.167000	22.980000	15.000000	50.415698
113.000000	49.491923	322.819333	37.610062	42.130735	1.000000	379.910000	33.600000	380.130000	33.310000	13.165000	23.220000	15.000000	50.431375
114.000000	49.526928	311.528261	37.607469	42.177086	1.000000	380.450000	26.860000	380.680000	26.610000	13.165000	23.150000	13.500000	50.435608
115.000000	49.333428	92.953027	37.605524	42.218252	1.000000	380.820000	23.100000	381.080000	22.900000	13.166000	23.170000	12.500000	50.437019
116.000000	49.138955	164.787596	37.603580	42.265251	1.000000	380.910000	22.300000	381.170000	22.140000	13.166000	23.100000	12.500000	50.452696
117.000000	48.948048	169.827480	37.600987	42.347258	1.000000	380.860000	23.090000	381.110000	22.870000	13.166000	23.100000	12.500000	50.460534
118.000000	48.775616	142.097302	37.597746	42.415002	1.000000	381.440000	16.120000	381.660000	15.980000	13.166000	22.970000	10.500000	50.463357
119.000000	48.502058	78.114570	37.595154	42.466216	1.000000	381.470000	16.500000	381.700000	16.340000	13.165000	23.120000	10.000000	50.470413
120.000000	48.159138	36.713980	37.591265	42.509650	1.000000	381.630000	15.230000	381.850000	15.050000	13.166000	23.150000	10.000000	50.466179
121.000000	47.869698	107.358875	37.588996	42.571560	1.000000	381.120000	21.560000	381.370000	21.360000	13.166000	23.180000	11.500000	50.461946
122.000000	47.653509	122.218962	37.588024	42.618883	1.000000	381.280000	19.570000	381.510000	19.390000	13.166000	23.190000	11.000000	50.461164
123.000000	47.432459	118.152446	37.585107	42.655835	1.000000	381.210000	20.360000	381.490000	20.190000	13.166000	23.040000	11.500000	50.471825
124.000000	47.332954	266.061149	37.579922	42.701538	1.000000	380.560000	28.040000	380.790000	27.780000	13.166000	23.070000	13.500000	50.466809
125.000000	47.313507	297.965997	37.577977	42.760207	1.000000	379.940000	35.090000	380.180000	34.760000	13.166000	23.160000	15.500000	50.471825
126.000000	47.452555	401.424231	37.573764	42.821468	1.000000	379.510000	39.620000	379.740000	39.290000	13.166000	23.190000	17.000000	50.468221
127.000000	47.695645	490.930859	37.571495	42.854206	1.000000	379.670000	36.470000	379.910000	36.150000	13.166000	23.070000	15.000000	50.482486
128.000000	47.722547	277.092656	37.569227	42.883054	1.000000	380.440000	27.440000	380.680000	27.180000	13.165000	23.080000	14.000000	50.477471
129.000000	47.722871	295.240566	37.566310	42.932971	1.000000	380.010000	32.940000	380.220000	32.630000	13.166000	23.100000	15.000000	50.489544
130.000000	47.818811	350.787449	37.563717	42.984185	1.000000	379.950000	33.100000	380.180000	32.790000	13.166000	22.990000	15.000000	50.518073
131.000000	47.868402	345.963868	37.561125	43.017571	1.000000	379.830000	34.160000	380.090000	33.880000	13.166000	22.910000	15.000000	50.498794
132.000000	47.965638	349.684298	37.560153	43.037343	1.000000	379.820000	34.400000	380.060000	34.080000	13.165000	22.940000	15.000000	50.537984
133.000000	47.971472	265.347346	37.559180	43.060681	1.000000	380.580000	25.570000	380.800000	25.330000	13.166000	23.040000	13.000000	50.509455
134.000000	47.824321	82.938150	37.554967	43.116756	1.000000	384.190000	-17.450000	384.390000	-17.370000	13.166000	23.080000	0.000000	50.556483
135.000000	46.729117	-545.400431	37.553023	43.153383	1.000000	384.510000	-18.780000	384.740000	-18.670000	13.167000	22.700000	0.000000	50.540807
136.000000	45.656278	-540.795738	37.552050	43.189038	1.000000	384.830000	-20.380000	385.020000	-20.300000	13.164000	24.830000	0.000000	50.565733
137.000000	43.448043	-1870.730817	37.553023	43.215293	1.000000	385.330000	-23.210000	385.540000	-23.100000	13.166000	24.040000	0.000000	50.559306
138.000000	41.590508	-1365.100753	37.549458	43.264562	1.000000	387.590000	-48.660000	387.800000	-48.320000	13.166000	23.860000	0.000000	50.592069
139.000000	39.705099	-964.124885	37.550754	43.329065	1.000000	384.770000	-13.270000	384.980000	-13.180000	13.165000	24.830000	0.000000	50.585643
140.000000	38.774225	-512.021807	37.550754	43.355320	1.000000	383.960000	-2.830000	384.150000	-2.820000	13.164000	25.530000	7.000000	50.583453
141.000000	38.449456	262.427241	37.549134	43.392596	1.000000	381.030000	30.910000	381.260000	30.640000	13.162000	25.570000	13.000000	50.627655
142.000000	38.712318	447.734934	37.550430	43.435057	1.000000	380.560000	34.120000	380.810000	33.850000	13.164000	25.130000	14.000000	50.619818
143.000000	38.956381	354.572770	37.548161	43.473305	1.000000	380.270000	36.930000	380.500000	36.630000	13.164000	25.220000	16.500000	50.641140
144.000000	39.422790	605.831597	37.546865	43.508960	1.000000	379.620000	42.990000	379.850000	42.630000	13.164000	25.230000	19.000000	50.647566
145.000000	40.104740	766.610454	37.544921	43.550450	1.000000	378.890000	49.740000	379.130000	49.310000	13.163000	25.090000	19.500000	50.656815
146.000000	40.856699	839.937561	37.543948	43.601339	1.000000	378.040000	58.700000	378.290000	58.200000	13.163000	25.260000	21.500000	50.656815
147.000000	41.788546	1047.135340	37.543624	43.666815	1.000000	376.770000	71.890000	377.030000	71.270000	13.163000	25.180000	25.500000	50.663876
148.000000	42.959270	1179.967767	37.539411	43.692097	1.000000	376.710000	70.920000	376.940000	70.320000	13.164000	25.050000	24.500000	50.682374
149.000000	43.836988	831.198873	37.537791	43.715759	1.000000	378.160000	52.450000	378.410000	52.010000	13.164000	25.100000	20.000000	50.717324
150.000000	44.404848	624.303968	37.537143	43.742986	1.000000	379.110000	41.040000	379.360000	40.680000	13.163000	25.110000	17.000000	50.726573
151.000000	44.646317	376.635784	37.532929	43.780910	1.000000	379.940000	31.900000	380.170000	31.580000	13.164000	25.110000	14.000000	50.748671
152.000000	44.743878	324.874222	37.530985	43.798090	1.000000	380.100000	30.440000	380.310000	30.150000	13.163000	25.100000	14.000000	50.779242
153.000000	44.839493	328.335087	37.526448	43.819483	1.000000	380.130000	30.100000	380.380000	29.810000	13.163000	24.990000	14.000000	50.792091
154.000000	44.860237	268.591907	37.525151	43.833420	1.000000	380.390000	27.210000	380.630000	26.960000	13.164000	25.140000	13.000000	50.787079
155.000000	44.889408	284.663298	37.521587	43.836338	1.000000	379.780000	34.780000	380.010000	34.490000	13.164000	25.190000	15.000000	50.824850
156.000000	45.035586	389.440985	37.519966	43.852869	1.000000	378.880000	45.480000	379.100000	45.050000	13.163000	25.220000	18.000000	50.829086
157.000000	45.421290	537.263196	37.518022	43.862917	1.000000	379.080000	41.770000	379.340000	41.420000	13.164000	25.180000	16.500000	50.818425
158.000000	45.692579	462.227307	37.515429	43.879772	1.000000	378.650000	47.070000	378.900000	46.650000	13.163000	25.340000	18.500000	50.833323
159.000000	46.157044	685.063795	37.513160	43.892737	1.000000	378.120000	51.940000	378.370000	51.490000	13.164000	25.280000	20.000000	50.816238
160.000000	46.620213	557.833716	37.509919	43.907647	1.000000	379.420000	35.900000	379.660000	35.580000	13.163000	25.200000	16.000000	50.816238
161.000000	46.794589	415.181170	37.507651	43.922234	1.000000	379.370000	36.780000	379.600000	36.450000	13.164000	25.100000	16.000000	50.824074
162.000000	46.982255	413.342585	37.505382	43.944275	1.000000	379.470000	35.170000	379.730000	34.860000	13.164000	25.160000	15.000000	50.828312
163.000000	47.086622	357.276570	37.503114	43.963723	1.000000	379.480000	36.090000	379.680000	35.780000	13.164000	25.180000	17.000000	50.836148
164.000000	47.454823	666.915879	37.496632	44.001323	1.000000	377.990000	52.540000	378.210000	52.090000	13.164000	25.400000	20.000000	50.823300
165.000000	47.823025	504.536387	37.494363	44.029847	1.000000	378.700000	43.460000	378.960000	43.080000	13.164000	25.190000	17.500000	50.843211
166.000000	48.061577	452.818080	37.494363	44.060315	1.000000	379.040000	39.360000	379.300000	39.030000	13.163000	25.260000	16.000000	50.841798
167.000000	48.161407	300.215559	37.489178	44.088191	1.000000	380.170000	26.180000	380.390000	25.940000	13.163000	25.290000	13.000000	50.841798
168.000000	48.062874	229.678808	37.487558	44.128708	1.000000	380.130000	27.140000	380.370000	26.890000	13.164000	25.130000	13.000000	50.828950
169.000000	47.966286	199.937002	37.483669	44.142322	1.000000	381.330000	12.730000	381.510000	12.570000	13.164000	25.050000	9.000000	50.844623
170.000000	47.555949	-40.700043	37.481724	44.165660	1.000000	381.810000	8.580000	382.040000	8.490000	13.164000	25.030000	7.000000	50.833189
171.000000	46.976745	-185.304733	37.476539	44.183163	1.000000	382.390000	3.040000	382.630000	2.920000	13.165000	25.040000	6.000000	50.848861
172.000000	46.452642	-61.323885	37.474270	44.212659	1.000000	381.510000	14.410000	381.780000	14.290000	13.164000	25.170000	9.500000	50.821754
173.000000	46.140838	56.960037	37.472002	44.254797	1.000000	381.450000	14.920000	381.670000	14.760000	13.164000	24.990000	10.000000	50.853100
174.000000	45.870521	65.655458	37.469085	44.277486	1.000000	380.780000	23.480000	381.010000	23.250000	13.164000	24.930000	13.000000	50.834601
175.000000	45.816717	235.021518	37.466492	44.291100	1.000000	380.550000	25.910000	380.770000	25.660000	13.164000	24.980000	12.500000	50.816744
176.000000	45.700358	178.501272	37.467464	44.294990	1.000000	381.350000	15.780000	381.570000	15.630000	13.164000	25.020000	10.500000	50.777561
177.000000	45.478983	121.159072	37.466492	44.306010	1.000000	381.220000	17.320000	381.470000	17.140000	13.164000	25.180000	9.500000	50.777561
178.000000	44.971086	-456.484447	37.464224	44.318328	1.000000	384.060000	-15.420000	384.280000	-15.380000	13.164000	25.280000	0.000000	50.776148
179.000000	43.898571	-529.683942	37.461631	44.326431	1.000000	384.210000	-15.520000	384.430000	-15.470000	13.164000	25.100000	0.000000	50.780386
180.000000	42.879536	-535.153367	37.463251	44.332914	1.000000	384.290000	-14.920000	384.520000	-14.840000	13.165000	25.040000	0.000000	50.783213
181.000000	41.900043	-460.764866	37.461631	44.371486	1.000000	383.740000	-7.330000	383.980000	-7.330000	13.164000	25.000000	3.000000	50.779616
182.000000	41.380154	117.654947	37.461955	44.400658	1.000000	380.850000	27.040000	381.100000	26.840000	13.163000	25.040000	14.000000	50.762529
183.000000	41.665380	484.636410	37.464548	44.413299	1.000000	379.520000	41.480000	379.760000	41.130000	13.164000	25.080000	17.000000	50.754692
184.000000	42.105860	626.921248	37.463575	44.424968	1.000000	379.030000	45.300000	379.270000	44.900000	13.163000	25.200000	18.000000	50.771779
185.000000	42.623481	653.396872	37.463900	44.459003	1.000000	378.580000	49.470000	378.820000	49.030000	13.164000	25.270000	19.500000	50.790279
186.000000	43.252923	725.080059	37.461631	44.489471	1.000000	378.610000	47.660000	378.860000	47.270000	13.163000	25.210000	18.000000	50.788866
187.000000	43.599084	367.918731	37.462927	44.517023	1.000000	381.020000	18.730000	381.240000	18.560000	13.164000	25.020000	10.500000	50.793106
188.000000	43.337194	20.556070	37.461631	44.543278	1.000000	381.390000	15.730000	381.600000	15.570000	13.165000	24.960000	9.500000	50.780259
189.000000	43.136239	105.001161	37.457742	44.581526	1.000000	381.180000	18.530000	381.430000	18.350000	13.165000	25.030000	10.500000	50.808779
190.000000	42.985199	139.155567	37.457742	44.599029	1.000000	380.720000	24.560000	380.960000	24.320000	13.164000	25.080000	12.000000	50.801587
191.000000	42.941767	213.737200	37.458390	44.616857	1.000000	380.630000	25.070000	380.870000	24.870000	13.164000	25.200000	12.500000	50.819443
192.000000	43.039003	431.512128	37.456121	44.635332	1.000000	379.390000	39.390000	379.620000	39.050000	13.164000	25.040000	16.000000	50.800173
193.000000	43.398777	528.913858	37.454177	44.666449	1.000000	378.780000	45.890000	379.030000	45.470000	13.164000	25.180000	17.500000	50.803001
194.000000	43.835368	589.370854	37.451908	44.709235	1.000000	378.810000	44.210000	379.050000	43.830000	13.163000	25.220000	18.000000	50.800173
195.000000	44.276496	590.668679	37.450288	44.731277	1.000000	378.630000	46.120000	378.880000	45.720000	13.164000	25.220000	18.000000	50.805828
196.000000	44.600941	410.162916	37.446399	44.752021	1.000000	380.450000	23.590000	380.680000	23.370000	13.164000	25.180000	11.500000	50.807242
197.000000	44.502084	122.002658	37.442510	44.777628	1.000000	380.930000	19.300000	381.140000	19.100000	13.164000	25.180000	10.500000	50.832165
198.000000	44.233712	15.278252	37.439917	44.801290	1.000000	381.550000	12.610000	381.800000	12.490000	13.164000	25.250000	8.500000	50.821501
199.000000	43.894358	-21.632718	37.437649	44.814255	1.000000	382.070000	7.150000	382.310000	7.050000	13.164000	25.280000	7.000000	50.830752
200.000000	43.483697	24.406281	37.435704	44.816524	1.000000	381.660000	12.670000	381.910000	12.560000	13.164000	25.220000	9.000000	50.842829
201.000000	43.190043	38.076695	37.434732	44.826248	1.000000	381.120000	19.570000	381.370000	19.370000	13.164000	25.300000	10.500000	50.853493
202.000000	43.095076	228.986635	37.429222	44.845697	1.000000	380.610000	25.120000	380.850000	24.880000	13.163000	25.240000	12.000000	50.844243
203.000000	43.136239	290.611659	37.426954	44.868710	1.000000	380.340000	28.070000	380.570000	27.810000	13.164000	25.240000	13.000000	50.819967
204.000000	43.115820	171.406499	37.423713	44.882972	1.000000	381.060000	18.850000	381.290000	18.660000	13.164000	25.100000	10.500000	50.836407
205.000000	42.985199	139.977523	37.424685	44.900151	1.000000	381.010000	20.050000	381.260000	19.850000	13.164000	25.070000	11.000000	50.829218
206.000000	42.987468	313.323585	37.422741	44.919924	1.000000	380.000000	31.980000	380.240000	31.720000	13.164000	25.120000	14.000000	50.837054
207.000000	43.183237	446.177544	37.420472	44.942289	1.000000	379.220000	40.820000	379.430000	40.470000	13.164000	24.930000	16.500000	50.835640
208.000000	43.518702	514.529636	37.416259	44.952661	1.000000	379.150000	40.500000	379.400000	40.140000	13.164000	24.960000	16.000000	50.838468
209.000000	43.622420	233.593911	37.413018	44.956551	1.000000	380.530000	23.670000	380.770000	23.460000	13.164000	25.040000	12.000000	50.818553
210.000000	43.504765	87.761730	37.411722	44.963682	1.000000	382.020000	6.550000	382.290000	6.460000	13.164000	25.120000	4.500000	50.847719
211.000000	42.778734	-434.563511	37.410426	44.975675	1.000000	383.960000	-15.210000	384.190000	-15.150000	13.165000	25.180000	0.000000	50.849133
212.000000	41.751596	-519.480114	37.407509	44.986047	1.000000	384.120000	-14.970000	384.340000	-14.910000	13.165000	25.090000	0.000000	50.866220
213.000000	40.777614	-515.653678	37.405888	44.995447	1.000000	383.940000	-11.240000	384.160000	-11.230000	13.165000	24.940000	0.500000	50.870463
214.000000	39.972499	-281.441230	37.402972	45.002254	1.000000	381.190000	23.030000	381.450000	22.820000	13.164000	24.990000	12.000000	50.889729
215.000000	40.034081	302.270448	37.399731	45.017813	1.000000	380.140000	33.820000	380.380000	33.540000	13.164000	24.990000	15.000000	50.874706
216.000000	40.354637	512.518008	37.401027	45.029158	1.000000	379.580000	38.720000	379.830000	38.400000	13.164000	24.990000	16.000000	50.870463
217.000000	40.908559	736.868635	37.398759	45.046985	1.000000	377.830000	58.200000	378.050000	57.720000	13.164000	24.970000	21.500000	50.887550
218.000000	41.757106	871.106991	37.394870	45.054116	1.000000	377.640000	58.130000	377.880000	57.640000	13.164000	25.010000	21.500000	50.873292
219.000000	42.566435	848.005707	37.394221	45.070647	1.000000	378.070000	51.910000	378.300000	51.460000	13.164000	24.970000	19.500000	50.888964
220.000000	43.038679	501.659542	37.390008	45.092364	1.000000	379.370000	36.420000	379.590000	36.100000	13.163000	25.040000	15.500000	50.913887
221.000000	43.370579	515.286700	37.389684	45.106950	1.000000	379.140000	38.660000	379.380000	38.340000	13.164000	25.170000	15.500000	50.902458
222.000000	43.614317	428.700175	37.387740	45.129964	1.000000	379.350000	36.140000	379.630000	35.830000	13.164000	24.870000	15.500000	50.918130
223.000000	43.910239	530.406356	37.385795	45.150708	1.000000	378.470000	46.440000	378.690000	46.070000	13.163000	24.980000	18.500000	50.943052
224.000000	44.372760	613.878110	37.383851	45.165943	1.000000	378.500000	45.240000	378.720000	44.830000	13.164000	24.870000	18.000000	50.950888
225.000000	44.737395	491.925858	37.383851	45.171129	1.000000	378.860000	40.320000	379.130000	39.970000	13.164000	24.990000	16.500000	50.950126
226.000000	45.028456	486.150539	37.382878	45.179881	1.000000	378.980000	39.330000	379.190000	38.980000	13.164000	25.260000	16.500000	50.942290
227.000000	45.321461	480.440111	37.382878	45.187984	1.000000	378.790000	40.990000	379.050000	40.620000	13.164000	25.150000	16.500000	50.948711
228.000000	45.644285	582.687057	37.381906	45.202894	1.000000	377.930000	50.980000	378.160000	50.550000	13.164000	25.070000	20.000000	50.965797
229.000000	46.173574	673.880872	37.382230	45.216508	1.000000	377.700000	52.640000	377.950000	52.170000	13.164000	25.060000	20.000000	50.957961
230.000000	46.690223	672.539786	37.381582	45.227529	1.000000	377.680000	52.340000	377.920000	51.880000	13.164000	25.000000	19.500000	50.973633
231.000000	47.077871	520.564520	37.382554	45.242115	1.000000	378.610000	40.670000	378.840000	40.350000	13.163000	24.890000	16.000000	50.992134
232.000000	47.234745	389.267942	37.382554	45.254108	1.000000	379.370000	32.000000	379.630000	31.720000	13.165000	24.890000	14.500000	51.010635
233.000000	47.283039	324.506505	37.380610	45.257349	1.000000	379.720000	28.560000	379.940000	28.300000	13.164000	25.110000	13.500000	50.972872
234.000000	47.282391	276.422113	37.383527	45.261563	1.000000	379.500000	31.550000	379.730000	31.250000	13.164000	24.980000	14.500000	50.999208
235.000000	47.331658	317.519884	37.384175	45.266101	1.000000	379.470000	32.000000	379.690000	31.730000	13.164000	25.060000	14.000000	51.009874
236.000000	47.331982	267.878103	37.383203	45.282956	1.000000	379.930000	26.310000	380.180000	26.060000	13.164000	25.050000	12.500000	50.996378
237.000000	47.231828	189.338104	37.383203	45.299811	1.000000	380.260000	22.960000	380.490000	22.740000	13.165000	24.960000	12.000000	50.994203
238.000000	47.161818	286.350469	37.382554	45.326714	1.000000	380.040000	25.290000	380.320000	25.040000	13.164000	25.100000	12.500000	51.007044
239.000000	47.045459	207.486013	37.383527	45.339356	1.000000	379.980000	26.180000	380.250000	25.930000	13.165000	25.050000	12.500000	51.020539
240.000000	46.986793	237.184559	37.386443	45.348431	1.000000	379.850000	27.950000	380.090000	27.710000	13.164000	25.020000	13.000000	50.990612
241.000000	46.896039	218.755454	37.386443	45.358155	1.000000	380.100000	24.860000	380.360000	24.630000	13.164000	25.000000	12.500000	50.984192
242.000000	46.842883	242.743573	37.389684	45.360424	1.000000	380.060000	25.860000	380.260000	25.630000	13.164000	25.070000	13.000000	50.985607
243.000000	46.842559	309.192178	37.390332	45.359776	1.000000	379.500000	32.330000	379.720000	32.010000	13.164000	25.070000	14.500000	51.007699
244.000000	46.939471	353.058641	37.393573	45.352969	1.000000	379.330000	33.760000	379.560000	33.490000	13.163000	25.050000	15.000000	50.980602
245.000000	47.060693	405.598900	37.394221	45.343245	1.000000	379.060000	36.400000	379.300000	36.080000	13.164000	25.040000	16.000000	50.983433
246.000000	47.324527	513.599528	37.397138	45.334818	1.000000	378.500000	42.700000	378.770000	42.330000	13.164000	25.050000	18.000000	50.974181
247.000000	47.666150	576.176304	37.400379	45.318935	1.000000	378.080000	46.620000	378.360000	46.220000	13.164000	25.160000	18.500000	50.983433
248.000000	47.934198	418.966491	37.402323	45.301756	1.000000	378.990000	35.690000	379.210000	35.370000	13.164000	25.210000	15.500000	50.992684
249.000000	48.014256	341.702678	37.408805	45.284252	1.000000	379.180000	33.580000	379.430000	33.270000	13.164000	25.120000	15.000000	50.992684
250.000000	48.062874	340.058767	37.413018	45.266101	1.000000	379.260000	32.610000	379.520000	32.340000	13.165000	25.060000	14.500000	51.003350
251.000000	48.063198	237.833471	37.415935	45.239198	1.000000	379.760000	26.590000	380.020000	26.350000	13.164000	25.140000	13.000000	50.979843
252.000000	48.014580	247.718566	37.420796	45.224936	1.000000	379.700000	27.980000	379.960000	27.720000	13.164000	25.220000	13.500000	50.999761
253.000000	47.965638	247.588783	37.424037	45.220074	1.000000	379.840000	26.180000	380.090000	25.930000	13.163000	25.210000	13.000000	51.014017
254.000000	47.917668	265.109411	37.427926	45.210674	1.000000	379.440000	31.170000	379.680000	30.880000	13.164000	25.080000	14.000000	51.016848
255.000000	47.917344	316.049016	37.433436	45.198032	1.000000	379.370000	31.520000	379.650000	31.230000	13.164000	25.160000	14.500000	51.018264
256.000000	47.965638	318.817708	37.435380	45.187336	1.000000	378.620000	40.830000	378.870000	40.450000	13.164000	25.120000	17.500000	51.024683
257.000000	48.212294	499.431610	37.439917	45.170157	1.000000	378.200000	44.950000	378.460000	44.550000	13.164000	25.240000	18.000000	51.002593
258.000000	48.556186	588.094660	37.444454	45.146171	1.000000	377.760000	48.970000	378.020000	48.550000	13.163000	25.270000	19.000000	51.011844
259.000000	48.933138	566.226315	37.446723	45.133853	1.000000	378.430000	40.870000	378.680000	40.520000	13.164000	25.210000	17.000000	51.036766
260.000000	49.107191	437.871468	37.451260	45.130936	1.000000	378.630000	38.020000	378.880000	37.700000	13.164000	25.250000	15.500000	51.005424
261.000000	49.186925	353.253315	37.454177	45.119916	1.000000	378.940000	34.880000	379.160000	34.570000	13.164000	25.360000	15.000000	51.016091
262.000000	49.185628	264.503760	37.461307	45.078426	1.000000	379.440000	29.130000	379.680000	28.830000	13.163000	25.320000	14.000000	51.036009
263.000000	49.137659	256.651923	37.467464	45.058978	1.000000	379.690000	25.910000	379.940000	25.660000	13.163000	25.520000	13.000000	51.020339
264.000000	49.035885	220.615669	37.468437	45.044716	1.000000	379.680000	26.600000	379.930000	26.360000	13.164000	25.460000	13.000000	51.016751
265.000000	48.892299	187.218324	37.473622	45.014571	1.000000	381.330000	6.950000	381.580000	6.850000	13.163000	25.270000	6.000000	51.028174
266.000000	48.294296	-173.847044	37.481076	44.962710	1.000000	381.960000	1.260000	382.180000	1.180000	13.164000	25.360000	6.000000	51.006084
267.000000	47.729354	-106.289913	37.486909	44.920572	1.000000	381.420000	8.850000	381.660000	8.740000	13.165000	25.280000	8.500000	50.986825
268.000000	47.340085	54.580692	37.493067	44.891724	1.000000	380.910000	15.090000	381.170000	14.960000	13.164000	25.340000	10.000000	50.980405
269.000000	47.046431	62.994919	37.495984	44.861255	1.000000	381.000000	14.200000	381.230000	14.050000	13.164000	25.430000	10.000000	50.984654
270.000000	46.743054	26.958669	37.505058	44.815228	1.000000	381.170000	11.920000	381.420000	11.780000	13.164000	25.240000	9.500000	50.981822
271.000000	46.411803	36.065068	37.512836	44.770173	1.000000	381.140000	12.690000	381.420000	12.550000	13.164000	25.290000	8.500000	50.970399
272.000000	46.066290	26.763995	37.519318	44.729980	1.000000	380.680000	18.890000	380.900000	18.700000	13.164000	25.560000	11.000000	50.961147
273.000000	45.876031	135.067421	37.526124	44.691084	1.000000	380.690000	18.640000	380.930000	18.470000	13.164000	25.300000	11.000000	50.971815
274.000000	45.718833	146.142188	37.534226	44.654456	1.000000	380.560000	20.450000	380.790000	20.250000	13.164000	25.320000	11.500000	50.932636
275.000000	45.557097	143.005779	37.542652	44.593519	1.000000	380.710000	18.010000	380.950000	17.840000	13.164000	25.520000	10.500000	50.952557
276.000000	45.358086	125.160697	37.548485	44.551381	1.000000	380.880000	16.390000	381.100000	16.240000	13.163000	25.400000	10.500000	50.913378
277.000000	45.134767	100.393885	37.554643	44.509892	1.000000	380.880000	16.440000	381.110000	16.270000	13.164000	25.330000	10.000000	50.946138
278.000000	44.920848	94.034547	37.562745	44.467754	1.000000	381.310000	11.690000	381.550000	11.570000	13.165000	25.310000	9.000000	50.936886
279.000000	44.627518	56.138081	37.571495	44.406168	1.000000	381.100000	14.760000	381.350000	14.600000	13.164000	25.260000	9.500000	50.933299
280.000000	44.334513	34.399527	37.577005	44.358845	1.000000	382.160000	1.800000	382.420000	1.720000	13.164000	25.100000	6.500000	50.948971
281.000000	43.745586	-290.780328	37.582838	44.320921	1.000000	383.290000	-10.420000	383.490000	-10.420000	13.165000	25.300000	0.000000	50.926880
282.000000	42.763825	-519.804388	37.587376	44.280728	1.000000	383.680000	-13.580000	383.930000	-13.540000	13.165000	25.410000	1.500000	50.909791
283.000000	41.852398	-463.229350	37.592561	44.210714	1.000000	383.910000	-15.470000	384.130000	-15.380000	13.165000	25.180000	0.000000	50.904789
284.000000	40.828501	-606.731490	37.596774	44.157232	1.000000	384.210000	-17.680000	384.430000	-17.610000	13.163000	26.330000	0.000000	50.906205
285.000000	39.402371	-1148.744995	37.599691	44.112501	1.000000	384.780000	-22.640000	385.020000	-22.520000	13.164000	26.170000	0.000000	50.907622
286.000000	38.122095	-885.758621	37.600339	44.068095	1.000000	386.110000	-37.840000	386.340000	-37.610000	13.164000	26.130000	0.000000	50.884114
287.000000	36.286601	-1169.282362	37.603256	44.007157	1.000000	385.320000	-26.020000	385.530000	-25.880000	13.164000	26.170000	0.000000	50.902620
288.000000	34.894179	-802.657956	37.608117	43.932930	1.000000	384.880000	-19.830000	385.100000	-19.730000	13.164000	26.210000	0.000000	50.894784
289.000000	33.931542	-482.685802	37.612330	43.887227	1.000000	384.010000	-9.780000	384.240000	-9.760000	13.165000	25.590000	0.000000	50.884779
290.000000	33.057389	-479.205259	37.612006	43.843144	1.000000	384.030000	-9.740000	384.260000	-9.710000	13.165000	25.600000	0.000000	50.901869
291.000000	32.197822	-471.530769	37.615247	43.791931	1.000000	384.090000	-10.320000	384.300000	-10.280000	13.165000	25.170000	0.000000	50.903285
292.000000	31.348951	-450.582656	37.616867	43.730993	1.000000	383.860000	-7.010000	384.050000	-6.980000	13.165000	25.110000	0.000000	50.871941
293.000000	30.521796	-457.197850	37.618164	43.682373	1.000000	383.920000	-7.770000	384.170000	-7.750000	13.165000	25.320000	0.000000	50.870524
294.000000	29.731915	-454.430710	37.617191	43.640235	1.000000	383.880000	-6.640000	384.110000	-6.640000	13.163000	26.330000	0.000000	50.860520
295.000000	28.836694	-544.816738	37.619460	43.598746	1.000000	384.020000	-8.180000	384.240000	-8.160000	13.165000	25.110000	0.000000	50.861937
296.000000	28.069502	-413.161413	37.622701	43.533919	1.000000	382.930000	5.350000	383.150000	5.230000	13.165000	25.220000	7.000000	50.824923
297.000000	28.304489	696.441392	37.624321	43.487892	1.000000	379.330000	46.580000	379.620000	46.180000	13.165000	25.250000	20.000000	50.826340
298.000000	29.614907	1273.021860	37.624645	43.450616	1.000000	377.850000	61.610000	378.120000	61.080000	13.164000	25.150000	25.000000	50.816336
299.000000	31.386873	1704.700434	37.626914	43.414961	1.000000	375.130000	91.440000	375.390000	90.670000	13.163000	25.430000	34.000000	50.786407
300.000000	33.702713	1953.126106	37.627238	43.362127	1.000000	374.240000	98.410000	374.510000	97.570000	13.163000	25.450000	35.000000	50.784990
301.000000	35.877561	1788.237204	37.628858	43.302810	1.000000	374.410000	93.050000	374.660000	92.270000	13.163000	25.500000	33.000000	50.812752
302.000000	37.790195	1549.350624	37.630803	43.258403	1.000000	375.290000	80.910000	375.520000	80.240000	13.163000	25.490000	27.500000	50.831260
303.000000	39.145343	1140.924851	37.630803	43.210755	1.000000	377.040000	58.460000	377.300000	57.950000	13.164000	25.420000	22.000000	50.844098
304.000000	40.166647	966.194308	37.634692	43.132315	1.000000	377.090000	57.680000	377.350000	57.190000	13.164000	25.580000	22.000000	50.871859
305.000000	41.098817	935.911722	37.633071	43.054198	1.000000	377.330000	54.470000	377.590000	53.990000	13.163000	25.480000	20.500000	50.893950
306.000000	41.828737	745.845256	37.635016	42.993909	1.000000	377.910000	47.260000	378.190000	46.840000	13.164000	25.150000	18.500000	50.912457
307.000000	42.324641	572.131417	37.633720	42.933295	1.000000	379.650000	26.920000	379.890000	26.680000	13.164000	25.220000	13.500000	50.935965
308.000000	42.617646	556.406109	37.629831	42.867820	1.000000	378.650000	39.250000	378.890000	38.920000	13.163000	25.250000	17.000000	50.957307
309.000000	43.008212	557.552520	37.629182	42.762476	1.000000	377.930000	47.840000	378.190000	47.410000	13.164000	25.170000	19.000000	50.937383
310.000000	43.543335	655.084044	37.626266	42.698621	1.000000	377.890000	47.600000	378.150000	47.190000	13.164000	25.380000	19.000000	50.911710
311.000000	44.103091	670.744462	37.624321	42.638007	1.000000	378.110000	44.500000	378.380000	44.130000	13.164000	25.330000	18.000000	50.925217
312.000000	44.518938	548.078401	37.622053	42.583877	1.000000	378.350000	41.780000	378.580000	41.400000	13.164000	25.210000	16.500000	50.905292
313.000000	44.763001	417.106276	37.617840	42.491174	1.000000	379.030000	33.700000	379.300000	33.410000	13.164000	25.220000	15.500000	50.881783
314.000000	45.007064	486.345213	37.616867	42.414678	1.000000	378.670000	38.140000	378.930000	37.820000	13.163000	25.280000	16.500000	50.884619
315.000000	45.277705	462.941111	37.611358	42.359251	1.000000	379.020000	33.280000	379.300000	32.970000	13.165000	25.310000	15.000000	50.863946
316.000000	45.476391	422.968117	37.610062	42.311927	1.000000	378.950000	34.530000	379.160000	34.230000	13.164000	25.460000	16.500000	50.862528
317.000000	45.721426	471.766317	37.603580	42.238996	1.000000	379.000000	33.550000	379.240000	33.250000	13.164000	25.270000	15.000000	50.849691
318.000000	45.868252	371.422856	37.600987	42.175790	1.000000	379.140000	32.210000	379.410000	31.900000	13.164000	25.170000	14.500000	50.811927
319.000000	45.986881	364.998626	37.601635	42.128142	1.000000	378.580000	39.240000	378.840000	38.900000	13.164000	25.210000	17.000000	50.794836
320.000000	46.350220	621.016145	37.598070	42.085032	1.000000	377.900000	46.370000	378.140000	45.960000	13.164000	25.180000	19.000000	50.769908
321.000000	46.739489	551.322962	37.598070	42.029605	1.000000	378.130000	43.030000	378.390000	42.640000	13.164000	25.280000	18.000000	50.736396
322.000000	47.088567	553.745568	37.599043	41.950840	1.000000	378.000000	43.980000	378.250000	43.620000	13.164000	25.340000	18.500000	50.723559
323.000000	47.499228	638.493518	37.598394	41.905136	1.000000	377.490000	49.350000	377.750000	48.920000	13.164000	25.290000	20.000000	50.704304
324.000000	48.028193	746.948407	37.600663	41.854571	1.000000	376.710000	57.800000	376.970000	57.300000	13.165000	25.280000	22.500000	50.709303
325.000000	48.711764	842.446690	37.596774	41.796551	1.000000	375.870000	66.550000	376.130000	66.000000	13.164000	25.470000	24.500000	50.685792
326.000000	49.470855	880.040354	37.597746	41.719731	1.000000	375.860000	65.430000	376.130000	64.870000	13.164000	25.280000	24.500000	50.672954
327.000000	50.214388	862.346673	37.597422	41.663979	1.000000	375.570000	68.470000	375.790000	67.900000	13.169000	20.460000	24.500000	50.663699
328.000000	50.917730	844.177123	37.595478	41.623138	1.000000	375.740000	65.640000	375.960000	65.060000	13.169000	20.420000	24.000000	50.653698
329.000000	51.552035	796.200861	37.595478	41.574194	1.000000	375.800000	63.650000	376.030000	63.110000	13.170000	20.260000	24.000000	50.658698
330.000000	52.188284	807.210743	37.595802	41.510663	1.000000	375.170000	70.950000	375.400000	70.340000	13.169000	20.370000	25.500000	50.647279
331.000000	52.879310	881.792417	37.594505	41.483112	1.000000	374.930000	72.290000	375.180000	71.700000	13.169000	20.350000	26.000000	50.640861
332.000000	53.584597	875.822422	37.591913	41.461070	1.000000	374.810000	73.160000	375.060000	72.550000	13.169000	20.450000	26.000000	50.612348
333.000000	54.269465	866.326669	37.591913	41.439029	1.000000	374.600000	75.060000	374.830000	74.420000	13.169000	20.240000	26.500000	50.618767
334.000000	54.931968	863.428193	37.596774	41.412774	1.000000	374.520000	74.990000	374.790000	74.350000	13.169000	20.380000	26.500000	50.610929
335.000000	55.587341	853.824289	37.598394	41.367071	1.000000	374.280000	76.920000	374.570000	76.250000	13.169000	20.300000	26.500000	50.599511
336.000000	56.195068	829.014201	37.601959	41.334333	1.000000	374.680000	70.940000	374.930000	70.360000	13.168000	20.350000	26.000000	50.588093
337.000000	56.633928	574.251197	37.604552	41.299651	1.000000	376.360000	51.030000	376.640000	50.590000	13.170000	20.290000	21.000000	50.563160
338.000000	56.863730	555.822088	37.611682	41.262699	1.000000	376.190000	53.660000	376.470000	53.190000	13.170000	20.370000	20.000000	50.535390
339.000000	57.006992	450.481996	37.619460	41.222831	1.000000	377.220000	41.310000	377.480000	40.940000	13.169000	20.410000	19.000000	50.526809
340.000000	57.154791	587.337596	37.628858	41.198845	1.000000	376.040000	55.340000	376.260000	54.870000	13.169000	20.320000	22.500000	50.511133
341.000000	57.448769	586.472379	37.636960	41.183934	1.000000	376.460000	50.000000	376.720000	49.560000	13.169000	20.410000	20.500000	50.457684
342.000000	57.639676	530.947116	37.647979	41.159300	1.000000	376.650000	47.650000	376.890000	47.240000	13.170000	20.150000	20.000000	50.456265
343.000000	57.758628	475.010879	37.669045	41.093825	1.000000	376.580000	48.980000	376.860000	48.530000	13.170000	20.140000	19.500000	50.451265
344.000000	57.886980	483.468368	37.682008	41.053956	1.000000	376.290000	52.000000	376.540000	51.510000	13.169000	20.330000	22.000000	50.418492
345.000000	58.183551	630.425374	37.697240	40.999177	1.000000	375.490000	60.890000	375.740000	60.420000	13.169000	20.320000	22.500000	50.421330
346.000000	58.466509	581.540646	37.709555	40.945695	1.000000	376.070000	53.980000	376.320000	53.520000	13.169000	20.400000	21.000000	50.395654
347.000000	58.616901	536.571023	37.734186	40.861095	1.000000	376.060000	53.460000	376.320000	53.030000	13.170000	20.360000	21.000000	50.389234
348.000000	58.813319	530.233313	37.753307	40.793999	1.000000	376.140000	52.320000	376.360000	51.880000	13.170000	20.330000	20.500000	50.389234
349.000000	58.911528	475.075770	37.768215	40.753158	1.000000	376.900000	42.830000	377.140000	42.470000	13.169000	20.250000	20.000000	50.397073
350.000000	58.960470	400.494123	37.785391	40.723662	1.000000	376.760000	45.590000	377.000000	45.190000	13.170000	20.320000	18.500000	50.397073
351.000000	58.961118	369.303077	37.808401	40.636145	1.000000	377.090000	42.210000	377.340000	41.830000	13.170000	20.260000	17.500000	50.398493
352.000000	58.865502	346.158542	37.833031	40.550249	1.000000	377.780000	33.320000	378.030000	33.050000	13.170000	20.440000	16.000000	50.387074
353.000000	58.715110	264.071152	37.847291	40.481856	1.000000	378.000000	32.440000	378.220000	32.140000	13.170000	20.140000	15.500000	50.393493
354.000000	58.502487	236.297712	37.862847	40.408602	1.000000	377.940000	33.380000	378.210000	33.070000	13.170000	20.270000	15.000000	50.417009
355.000000	58.238004	198.768960	37.879051	40.338264	1.000000	378.610000	25.560000	378.850000	25.320000	13.170000	20.310000	14.500000	50.394173
356.000000	58.033159	246.810089	37.908867	40.255286	1.000000	378.310000	28.930000	378.570000	28.660000	13.170000	20.370000	15.000000	50.405591
357.000000	57.838686	248.583782	37.924747	40.179762	1.000000	378.240000	30.330000	378.490000	30.050000	13.170000	20.350000	15.500000	50.389914
358.000000	57.693480	317.152167	37.939331	40.117852	1.000000	377.710000	36.570000	377.950000	36.280000	13.169000	20.460000	16.500000	50.379916
359.000000	57.596244	308.824461	37.953915	40.045894	1.000000	378.060000	32.830000	378.270000	32.550000	13.169000	20.520000	15.500000	50.365658
360.000000	57.427053	232.123044	37.980166	39.948005	1.000000	378.260000	30.820000	378.520000	30.540000	13.170000	20.460000	15.000000	50.345720
361.000000	57.211836	229.181309	37.994750	39.881233	1.000000	378.700000	25.230000	378.960000	25.000000	13.169000	20.280000	15.000000	50.349980
362.000000	57.009909	233.615542	38.010306	39.804089	1.000000	378.600000	26.750000	378.850000	26.490000	13.170000	20.500000	15.000000	50.325725
363.000000	56.814139	246.853349	38.023269	39.725000	1.000000	378.250000	31.400000	378.510000	31.100000	13.169000	20.330000	15.000000	50.321465
364.000000	56.666664	296.862846	38.043038	39.615442	1.000000	378.430000	28.510000	378.660000	28.250000	13.170000	20.440000	16.500000	50.325725
365.000000	56.645272	399.326081	38.056326	39.552559	1.000000	376.960000	46.360000	377.190000	45.970000	13.170000	20.370000	19.000000	50.283689
366.000000	56.718200	440.207552	38.067020	39.504587	1.000000	377.170000	43.140000	377.420000	42.740000	13.170000	20.420000	18.500000	50.287949
367.000000	56.785617	406.961615	38.079984	39.432305	1.000000	377.550000	38.050000	377.780000	37.710000	13.170000	20.300000	18.000000	50.265852
368.000000	56.814139	411.914979	38.096188	39.329878	1.000000	377.220000	41.920000	377.520000	41.560000	13.170000	20.390000	17.500000	50.272271
369.000000	56.814139	352.734185	38.108503	39.190824	1.000000	377.880000	34.150000	378.130000	33.820000	13.169000	20.480000	17.000000	50.251593
370.000000	56.764549	360.002002	38.116281	39.104280	1.000000	377.580000	37.710000	377.860000	37.390000	13.169000	20.220000	17.500000	50.268693
371.000000	56.765521	366.664167	38.122763	39.027784	1.000000	377.640000	36.960000	377.880000	36.620000	13.169000	20.230000	17.500000	50.255855
372.000000	56.732461	368.546012	38.132161	38.937026	1.000000	377.390000	39.810000	377.660000	39.440000	13.169000	20.500000	17.500000	50.251594
373.000000	56.716903	383.773819	38.139615	38.817095	1.000000	377.460000	39.060000	377.690000	38.730000	13.170000	20.350000	17.500000	50.260117
374.000000	56.727275	382.540886	38.144152	38.731848	1.000000	377.630000	36.800000	377.870000	36.490000	13.171000	20.470000	17.500000	50.260117
375.000000	56.764549	400.364341	38.146745	38.660538	1.000000	377.420000	38.960000	377.650000	38.630000	13.170000	20.510000	18.000000	50.252277
376.000000	56.764873	398.093148	38.152254	38.582421	1.000000	377.590000	36.720000	377.830000	36.410000	13.170000	20.280000	18.000000	50.248700
377.000000	56.814139	398.244561	38.160033	38.457629	1.000000	377.100000	42.650000	377.350000	42.310000	13.170000	20.400000	18.000000	50.230180
378.000000	56.794692	353.037011	38.162949	38.361361	1.000000	377.970000	32.200000	378.220000	31.910000	13.169000	20.580000	15.000000	50.243017
379.000000	56.619343	241.164553	38.163922	38.268982	1.000000	378.430000	27.430000	378.690000	27.160000	13.170000	20.410000	14.000000	50.218762
380.000000	56.275774	97.992910	38.167486	38.201886	1.000000	378.570000	26.760000	378.800000	26.500000	13.170000	20.440000	14.000000	50.225181
381.000000	56.042083	189.662560	38.172672	38.087466	1.000000	378.650000	25.910000	378.900000	25.660000	13.170000	20.510000	14.000000	50.224446
382.000000	55.857334	276.897982	38.174616	37.985687	1.000000	377.950000	34.500000	378.170000	34.180000	13.169000	20.280000	17.000000	50.209502
383.000000	55.858955	414.986496	38.177857	37.919564	1.000000	377.170000	42.480000	377.440000	42.120000	13.170000	20.530000	19.000000	50.225181
384.000000	56.005457	480.202177	38.180126	37.848902	1.000000	376.350000	52.520000	376.620000	52.080000	13.169000	20.500000	19.500000	50.191666
385.000000	56.180807	543.060146	38.185635	37.717303	1.000000	376.730000	46.330000	377.000000	45.920000	13.171000	20.260000	20.500000	50.199506
386.000000	56.423898	573.277829	38.187904	37.598345	1.000000	375.390000	63.120000	375.630000	62.590000	13.170000	20.380000	22.000000	50.180250
387.000000	56.759363	630.598418	38.192117	37.516015	1.000000	375.540000	59.510000	375.780000	59.040000	13.170000	20.520000	22.000000	50.194508
388.000000	57.053989	598.996387	38.191145	37.438546	1.000000	376.020000	52.790000	376.260000	52.340000	13.169000	20.250000	21.000000	50.189511
389.000000	57.300321	553.810460	38.195358	37.358809	1.000000	376.640000	45.040000	376.890000	44.610000	13.170000	20.500000	19.500000	50.192353
390.000000	57.401771	485.826083	38.198923	37.204196	1.000000	376.420000	47.880000	376.690000	47.460000	13.169000	20.350000	19.500000	50.190932
391.000000	57.473402	378.777195	38.197626	37.120569	1.000000	377.570000	33.800000	377.840000	33.500000	13.170000	20.450000	16.000000	50.190932
392.000000	57.350884	262.146046	38.198274	37.043749	1.000000	377.920000	30.260000	378.180000	30.020000	13.170000	20.400000	15.500000	50.201614
393.000000	57.152846	200.867109	38.200219	36.955584	1.000000	378.340000	25.870000	378.580000	25.650000	13.170000	20.390000	14.000000	50.188777
394.000000	56.819974	7.577829	38.200867	36.834682	1.000000	379.130000	17.700000	379.380000	17.480000	13.170000	20.400000	13.500000	50.196617
395.000000	56.576235	229.916743	38.201839	36.752027	1.000000	378.250000	28.950000	378.500000	28.680000	13.169000	20.490000	14.500000	50.175940
396.000000	56.374307	223.232948	38.200543	36.685903	1.000000	378.710000	23.020000	378.980000	22.770000	13.170000	20.250000	14.500000	50.170943
397.000000	56.179510	226.455878	38.200543	36.631773	1.000000	377.070000	43.340000	377.340000	42.960000	13.169000	20.370000	19.500000	50.169522
398.000000	56.316289	517.601154	38.200543	36.569215	1.000000	376.680000	46.200000	376.960000	45.800000	13.170000	20.250000	20.000000	50.150267
399.000000	56.470571	502.243563	38.202163	36.522539	1.000000	376.700000	45.250000	376.950000	44.820000	13.169000	20.440000	20.000000	50.150267
400.000000	56.718524	586.515640	38.201839	36.470353	1.000000	375.100000	65.400000	375.330000	64.830000	13.169000	20.520000	23.000000	50.143848
401.000000	57.075705	668.019030	38.203136	36.425623	1.000000	375.070000	63.230000	375.320000	62.690000	13.169000	20.520000	23.000000	50.143848
402.000000	57.438397	662.589797	38.205728	36.372464	1.000000	375.130000	61.520000	375.380000	61.040000	13.169000	20.300000	23.000000	50.140273
403.000000	57.790068	648.703072	38.206377	36.296617	1.000000	375.410000	57.900000	375.670000	57.380000	13.170000	20.260000	21.000000	50.134587
404.000000	57.987458	489.113905	38.208969	36.250265	1.000000	376.040000	49.970000	376.290000	49.540000	13.170000	20.380000	20.000000	50.131012
405.000000	58.087287	484.939236	38.208645	36.203266	1.000000	376.730000	41.090000	376.980000	40.770000	13.170000	20.260000	18.500000	50.141695
406.000000	58.132016	421.064641	38.209942	36.161128	1.000000	376.740000	41.310000	377.010000	40.960000	13.170000	20.280000	18.500000	50.147383
407.000000	58.096687	358.833960	38.207997	36.106349	1.000000	377.130000	36.830000	377.400000	36.510000	13.170000	20.350000	17.500000	50.147383
408.000000	58.085019	371.249813	38.208645	36.062267	1.000000	377.060000	38.960000	377.290000	38.600000	13.170000	20.300000	17.500000	50.145961
409.000000	58.034780	372.417855	38.208645	36.024667	1.000000	377.340000	34.700000	377.610000	34.390000	13.169000	20.320000	17.000000	50.139543
410.000000	57.934950	284.079277	38.205728	35.980584	1.000000	377.590000	32.910000	377.840000	32.590000	13.170000	20.480000	16.000000	50.133125
411.000000	57.790392	284.209059	38.201191	35.927426	1.000000	377.470000	34.310000	377.690000	34.030000	13.171000	20.470000	16.000000	50.136699
412.000000	57.643890	293.185677	38.200219	35.894040	1.000000	377.770000	30.650000	378.000000	30.350000	13.170000	20.330000	16.500000	50.148805
413.000000	57.578093	350.657666	38.197626	35.867785	1.000000	377.040000	39.830000	377.270000	39.470000	13.169000	20.460000	18.000000	50.131703
414.000000	57.595920	399.996624	38.195034	35.858385	1.000000	376.850000	41.140000	377.110000	40.760000	13.169000	20.420000	19.000000	50.126706
415.000000	57.691860	460.648287	38.193413	35.833103	1.000000	375.770000	54.290000	376.040000	53.820000	13.169000	20.170000	21.000000	50.113870
416.000000	57.907724	635.205695	38.189524	35.818841	1.000000	375.340000	58.000000	375.600000	57.480000	13.170000	20.240000	22.500000	50.107452
417.000000	58.232170	637.325476	38.186932	35.810089	1.000000	374.790000	64.250000	375.020000	63.740000	13.170000	20.250000	23.000000	50.115292
418.000000	58.541057	635.681564	38.181746	35.809117	1.000000	375.240000	57.890000	375.480000	57.420000	13.169000	20.300000	21.000000	50.097461
419.000000	58.806188	651.515026	38.181098	35.801337	1.000000	375.160000	57.720000	375.360000	57.240000	13.170000	20.440000	23.000000	50.102456
420.000000	59.157536	698.604434	38.176885	35.800689	1.000000	374.270000	68.000000	374.530000	67.450000	13.170000	20.380000	24.000000	50.108146
421.000000	59.516338	688.092053	38.176561	35.799393	1.000000	374.390000	65.730000	374.630000	65.170000	13.169000	20.360000	24.000000	50.113141
422.000000	59.839163	623.330599	38.177209	35.802310	1.000000	375.150000	55.530000	375.400000	55.050000	13.169000	20.470000	22.000000	50.106723
423.000000	59.938020	439.688422	38.176237	35.802634	1.000000	376.010000	46.120000	376.260000	45.710000	13.169000	20.400000	18.000000	50.112413
424.000000	59.887781	369.411229	38.175913	35.790965	1.000000	376.180000	44.840000	376.460000	44.430000	13.170000	20.290000	17.500000	50.117408
425.000000	59.744195	256.132793	38.175589	35.780593	1.000000	376.950000	36.670000	377.230000	36.340000	13.170000	20.180000	15.500000	50.129516
426.000000	59.504669	240.645423	38.176885	35.772165	1.000000	377.970000	24.400000	378.210000	24.170000	13.170000	20.210000	15.000000	50.128093
427.000000	59.255420	224.119794	38.175589	35.757579	1.000000	377.400000	32.500000	377.640000	32.190000	13.170000	20.280000	15.000000	50.116681
428.000000	59.010385	224.076533	38.180126	35.761793	1.000000	377.900000	25.800000	378.170000	25.550000	13.170000	20.350000	15.500000	50.101000
429.000000	58.815264	264.071152	38.179153	35.769572	1.000000	376.560000	42.640000	376.860000	42.290000	13.169000	20.330000	17.000000	50.108841
430.000000	58.726778	346.785823	38.181098	35.779944	1.000000	376.820000	38.850000	377.050000	38.510000	13.170000	20.290000	18.500000	50.097428
431.000000	58.765673	408.043136	38.182070	35.784158	1.000000	376.500000	42.710000	376.740000	42.350000	13.169000	20.470000	18.500000	50.088165
432.000000	58.767618	408.692048	38.190496	35.786427	1.000000	376.480000	42.120000	376.730000	41.780000	13.171000	20.460000	18.000000	50.073907
433.000000	58.717703	377.349588	38.193737	35.779620	1.000000	376.610000	41.300000	376.870000	40.920000	13.170000	20.320000	18.000000	50.089588
434.000000	58.626949	305.839465	38.195034	35.782213	1.000000	376.870000	38.190000	377.110000	37.870000	13.170000	20.320000	17.000000	50.088165
435.000000	58.524851	322.581399	38.199895	35.783834	1.000000	377.020000	36.560000	377.280000	36.220000	13.170000	20.270000	17.000000	50.059649
436.000000	58.426966	313.193803	38.203784	35.782862	1.000000	377.450000	31.030000	377.700000	30.720000	13.169000	20.400000	17.000000	50.061072
437.000000	58.329082	324.549766	38.212534	35.777351	1.000000	376.680000	40.980000	376.970000	40.630000	13.170000	20.450000	17.000000	50.058923
438.000000	58.231197	326.323459	38.219664	35.770869	1.000000	376.790000	39.170000	377.060000	38.840000	13.170000	20.310000	17.000000	50.032556
439.000000	58.133961	330.757692	38.222581	35.769572	1.000000	376.340000	45.110000	376.620000	44.710000	13.170000	20.380000	17.500000	50.027561
440.000000	58.084694	338.112030	38.231655	35.765034	1.000000	376.860000	38.250000	377.120000	37.950000	13.170000	20.330000	17.000000	50.057500
441.000000	58.018250	338.479747	38.240405	35.746883	1.000000	376.520000	42.440000	376.770000	42.060000	13.170000	20.480000	18.000000	50.030407
442.000000	57.987458	393.247937	38.247211	35.737807	1.000000	376.460000	43.100000	376.710000	42.710000	13.169000	20.280000	18.500000	50.039671
443.000000	58.038021	442.327332	38.252397	35.730352	1.000000	376.540000	40.960000	376.790000	40.560000	13.170000	20.420000	19.000000	50.026138
444.000000	58.084694	391.279570	38.259202	35.719979	1.000000	376.520000	41.660000	376.770000	41.290000	13.169000	20.330000	18.000000	50.036100
445.000000	58.084694	390.176419	38.269573	35.713821	1.000000	376.600000	40.370000	376.870000	40.010000	13.170000	20.490000	18.000000	50.036100
446.000000	58.064275	391.560765	38.272814	35.706366	1.000000	376.590000	40.800000	376.810000	40.440000	13.170000	20.300000	18.000000	50.036100
447.000000	58.084694	431.014628	38.279944	35.698586	1.000000	375.750000	50.870000	376.020000	50.470000	13.169000	20.420000	19.000000	50.026836
448.000000	58.145305	444.447112	38.285453	35.686593	1.000000	376.000000	47.250000	376.250000	46.860000	13.170000	20.370000	18.500000	50.014002
449.000000	58.181931	406.723681	38.291287	35.674924	1.000000	376.740000	37.040000	377.010000	36.700000	13.170000	20.330000	18.500000	50.038947
450.000000	58.182579	407.826832	38.297444	35.660663	1.000000	376.340000	43.160000	376.560000	42.770000	13.169000	20.450000	18.000000	50.028260
451.000000	58.179662	342.416481	38.304250	35.648345	1.000000	377.070000	34.240000	377.310000	33.900000	13.170000	20.320000	17.000000	50.018272
452.000000	58.065895	289.616660	38.307491	35.636676	1.000000	377.040000	35.010000	377.280000	34.710000	13.170000	20.270000	15.500000	50.022542
453.000000	57.896380	281.180802	38.316565	35.615284	1.000000	377.090000	34.370000	377.370000	34.040000	13.170000	20.350000	17.000000	50.009708
454.000000	57.838362	360.153415	38.321102	35.590325	1.000000	377.160000	33.500000	377.390000	33.160000	13.169000	20.220000	17.500000	50.044641
455.000000	57.791041	358.401352	38.324667	35.575091	1.000000	376.250000	44.840000	376.530000	44.450000	13.169000	20.210000	17.500000	50.028959
456.000000	57.740802	359.828958	38.329205	35.557263	1.000000	376.890000	36.660000	377.170000	36.320000	13.170000	20.270000	17.500000	50.050335
457.000000	57.716169	356.930484	38.334714	35.541056	1.000000	376.730000	38.780000	376.990000	38.410000	13.170000	20.190000	17.500000	50.011132
458.000000	57.691535	383.687297	38.336983	35.512208	1.000000	376.150000	45.550000	376.430000	45.140000	13.171000	20.210000	18.500000	50.033230
459.000000	57.708066	408.627157	38.343140	35.498271	1.000000	376.000000	47.000000	376.280000	46.630000	13.169000	20.230000	18.500000	50.013979
460.000000	57.740802	409.405851	38.343788	35.483360	1.000000	376.150000	45.020000	376.400000	44.610000	13.170000	20.280000	18.500000	50.011132
461.000000	57.789420	437.763316	38.349622	35.472340	1.000000	376.520000	39.680000	376.770000	39.280000	13.170000	20.370000	19.000000	50.021820
462.000000	57.838362	451.563516	38.351242	35.459050	1.000000	376.240000	43.060000	376.480000	42.650000	13.169000	20.430000	19.000000	50.007562
463.000000	57.907724	445.182546	38.355455	35.453540	1.000000	376.150000	43.440000	376.420000	43.100000	13.170000	20.320000	19.500000	50.024668
464.000000	58.034131	505.661168	38.357400	35.450299	1.000000	375.260000	54.720000	375.520000	54.280000	13.169000	20.420000	20.000000	50.013979
465.000000	58.132988	431.382345	38.359668	35.448354	1.000000	375.860000	47.030000	376.090000	46.610000	13.170000	20.300000	19.000000	50.021099
466.000000	58.203647	436.919730	38.363882	35.446085	1.000000	376.450000	39.490000	376.650000	39.160000	13.170000	20.350000	19.000000	50.013258
467.000000	58.230549	390.544136	38.362585	35.446085	1.000000	376.470000	39.460000	376.720000	39.080000	13.169000	20.370000	18.000000	50.022523
468.000000	58.134285	287.237316	38.362585	35.445436	1.000000	377.150000	31.340000	377.420000	31.050000	13.170000	20.310000	16.000000	50.022522
469.000000	57.996209	263.833217	38.362585	35.445436	1.000000	377.620000	25.550000	377.880000	25.350000	13.170000	20.260000	15.000000	50.028939
470.000000	57.791689	240.191185	38.364530	35.446733	1.000000	377.500000	28.310000	377.730000	28.040000	13.170000	20.230000	15.000000	50.028219
471.000000	57.553784	173.461388	38.363557	35.445761	1.000000	378.330000	18.580000	378.600000	18.350000	13.171000	20.300000	13.000000	50.004697
472.000000	57.185582	70.089691	38.362585	35.443168	1.000000	378.230000	20.710000	378.490000	20.520000	13.171000	20.350000	14.500000	49.998280
473.000000	57.015095	349.814080	38.361613	35.442843	1.000000	378.360000	18.500000	378.640000	18.280000	13.170000	20.280000	12.000000	49.995432
474.000000	56.510114	-226.357850	38.360641	35.436685	1.000000	379.420000	8.170000	379.660000	8.080000	13.170000	20.400000	9.500000	49.990440
475.000000	56.017774	13.764124	38.359344	35.427285	1.000000	377.080000	36.950000	377.340000	36.670000	13.170000	20.330000	16.500000	50.038908
476.000000	55.938364	331.103779	38.356428	35.416264	1.000000	377.900000	25.330000	378.130000	25.110000	13.169000	20.400000	14.000000	49.993288
477.000000	55.701432	136.797854	38.354807	35.407513	1.000000	378.180000	23.070000	378.460000	22.850000	13.169000	20.450000	12.500000	49.996137
478.000000	55.383145	102.729969	38.352215	35.402002	1.000000	378.590000	18.640000	378.860000	18.460000	13.170000	20.290000	12.000000	49.979031
479.000000	55.061293	184.038655	38.349946	35.387416	1.000000	377.550000	31.210000	377.790000	30.930000	13.170000	20.370000	16.000000	49.992569
480.000000	55.010730	304.411858	38.349298	35.378989	1.000000	377.540000	30.640000	377.780000	30.320000	13.170000	20.310000	16.000000	49.974038
481.000000	54.987069	375.208178	38.346057	35.372182	1.000000	376.980000	37.210000	377.250000	36.870000	13.169000	20.390000	17.000000	49.987577
482.000000	54.914142	297.598280	38.343788	35.366347	1.000000	377.500000	30.630000	377.720000	30.370000	13.171000	20.270000	16.000000	49.971895
483.000000	54.864875	331.320083	38.344436	35.357596	1.000000	377.310000	32.550000	377.560000	32.260000	13.170000	20.320000	16.500000	49.964054
484.000000	54.848993	326.734437	38.342816	35.349492	1.000000	377.330000	32.720000	377.580000	32.400000	13.170000	20.500000	16.000000	49.976887
485.000000	54.815285	332.747690	38.342492	35.345927	1.000000	377.070000	35.440000	377.340000	35.150000	13.170000	20.300000	16.500000	49.964762
486.000000	54.775742	348.256691	38.340547	35.343658	1.000000	376.980000	36.820000	377.250000	36.490000	13.170000	20.280000	17.000000	49.966904
487.000000	54.835056	427.034633	38.337955	35.342685	1.000000	376.540000	41.410000	376.790000	41.070000	13.170000	20.350000	18.000000	49.982585
488.000000	54.913818	360.694175	38.336983	35.340417	1.000000	376.780000	38.500000	377.020000	38.180000	13.170000	20.330000	17.000000	49.969753
489.000000	54.936506	419.117904	38.337307	35.337499	1.000000	376.630000	40.020000	376.890000	39.640000	13.170000	20.210000	17.500000	49.981868
490.000000	54.973780	390.371093	38.335686	35.336527	1.000000	376.580000	40.680000	376.840000	40.320000	13.169000	20.260000	17.500000	49.968328
491.000000	55.009109	389.267942	38.335362	35.335555	1.000000	376.560000	40.880000	376.780000	40.510000	13.170000	20.230000	17.500000	49.971178
492.000000	55.059348	391.020005	38.335686	35.340417	1.000000	376.830000	36.960000	377.080000	36.650000	13.170000	20.270000	17.500000	49.970461
493.000000	55.107966	387.321206	38.333742	35.343334	1.000000	376.560000	40.330000	376.820000	39.980000	13.169000	20.370000	17.500000	49.986859
494.000000	55.109263	386.304576	38.333418	35.345279	1.000000	376.650000	38.700000	376.900000	38.390000	13.170000	20.290000	17.000000	49.992559
495.000000	55.158205	367.680796	38.331473	35.348520	1.000000	377.040000	33.670000	377.280000	33.370000	13.170000	20.250000	16.500000	49.987568
496.000000	55.067127	280.402108	38.329853	35.352734	1.000000	377.260000	32.060000	377.510000	31.740000	13.170000	20.230000	15.500000	50.003249
497.000000	54.970863	291.347093	38.322399	35.355003	1.000000	377.120000	34.010000	377.370000	33.720000	13.169000	20.290000	15.500000	49.984002
498.000000	54.872006	287.583402	38.319806	35.358892	1.000000	377.300000	31.910000	377.540000	31.600000	13.170000	20.460000	15.500000	49.998259
499.000000	54.791624	287.215685	38.318510	35.363106	1.000000	377.460000	29.550000	377.720000	29.260000	13.170000	20.300000	15.500000	50.004675
500.000000	54.697953	285.874600	38.315269	35.368940	1.000000	377.320000	31.420000	377.580000	31.110000	13.170000	20.340000	15.500000	50.002534
501.000000	54.576083	262.535393	38.307815	35.379961	1.000000	377.640000	28.350000	377.890000	28.060000	13.170000	20.250000	14.000000	49.981862
502.000000	54.381935	217.241326	38.304250	35.391954	1.000000	377.560000	29.360000	377.780000	29.090000	13.170000	20.430000	15.500000	50.011800
503.000000	54.322945	287.886228	38.300037	35.403623	1.000000	377.510000	29.720000	377.730000	29.450000	13.170000	20.320000	15.500000	50.006810
504.000000	54.227977	285.290579	38.295500	35.415616	1.000000	377.550000	29.160000	377.760000	28.900000	13.170000	20.300000	15.500000	49.986138
505.000000	54.130417	283.235691	38.288370	35.440250	1.000000	377.490000	30.190000	377.720000	29.900000	13.170000	20.370000	15.500000	49.998969
506.000000	54.083095	386.996749	38.280268	35.458402	1.000000	377.090000	34.400000	377.350000	34.120000	13.170000	20.300000	16.500000	49.992554
507.000000	54.114535	354.464618	38.276055	35.472988	1.000000	376.990000	35.280000	377.250000	34.990000	13.171000	20.240000	16.500000	49.992554
508.000000	54.083744	339.409855	38.273786	35.491788	1.000000	377.020000	35.760000	377.240000	35.460000	13.171000	20.220000	16.000000	49.992554
509.000000	54.033181	290.871224	38.270221	35.521284	1.000000	377.250000	32.350000	377.500000	32.060000	13.170000	20.160000	15.500000	49.995404
510.000000	53.985211	310.295328	38.264064	35.545270	1.000000	377.110000	34.050000	377.370000	33.740000	13.170000	20.050000	16.500000	49.995404
511.000000	53.984238	352.582772	38.261147	35.567636	1.000000	376.900000	36.320000	377.160000	36.020000	13.171000	20.060000	16.500000	49.985425
512.000000	53.983590	358.769069	38.260823	35.590001	1.000000	377.040000	34.690000	377.280000	34.390000	13.171000	20.080000	16.500000	50.016788
513.000000	53.991693	354.118531	38.258878	35.623387	1.000000	376.840000	37.140000	377.080000	36.820000	13.170000	20.150000	16.500000	49.985425
514.000000	54.025402	351.133535	38.256934	35.651263	1.000000	376.990000	34.640000	377.230000	34.360000	13.170000	20.240000	16.500000	49.991840
515.000000	54.032532	355.459616	38.256934	35.673628	1.000000	376.920000	35.770000	377.170000	35.460000	13.170000	20.120000	16.500000	49.999681
516.000000	54.032532	351.782447	38.257258	35.697614	1.000000	376.870000	35.830000	377.110000	35.550000	13.170000	20.240000	16.500000	50.003957
517.000000	54.075641	436.681795	38.257258	35.720303	1.000000	376.420000	40.770000	376.680000	40.430000	13.170000	20.150000	18.000000	49.998968
518.000000	54.180656	445.939610	38.255313	35.757579	1.000000	376.500000	39.710000	376.740000	39.350000	13.170000	20.020000	18.000000	50.009660
519.000000	54.324890	461.405352	38.254989	35.778000	1.000000	375.920000	46.150000	376.200000	45.710000	13.170000	20.310000	19.500000	50.012512
520.000000	54.519362	513.469746	38.253369	35.796799	1.000000	375.700000	48.140000	375.990000	47.710000	13.170000	20.340000	20.000000	50.012512
521.000000	54.768611	556.990130	38.252397	35.818841	1.000000	375.610000	48.850000	375.840000	48.440000	13.171000	20.170000	20.500000	50.014650
522.000000	55.029853	552.166548	38.251100	35.846392	1.000000	375.790000	45.970000	376.040000	45.550000	13.170000	20.030000	19.500000	50.038172
523.000000	55.174087	440.077769	38.251100	35.866489	1.000000	376.200000	40.840000	376.430000	40.510000	13.171000	20.130000	18.500000	50.029619
524.000000	55.271647	435.730057	38.251100	35.874268	1.000000	376.310000	39.370000	376.570000	39.020000	13.171000	20.110000	18.500000	50.038886
525.000000	55.352677	425.044636	38.248183	35.887882	1.000000	376.100000	42.190000	376.390000	41.830000	13.170000	20.190000	17.500000	50.038886
526.000000	55.400972	406.464116	38.246563	35.911543	1.000000	376.140000	41.900000	376.400000	41.530000	13.170000	20.100000	17.500000	50.053141
527.000000	55.421067	360.953740	38.249480	35.924833	1.000000	376.260000	40.510000	376.520000	40.160000	13.171000	20.290000	17.500000	50.033897
528.000000	55.448293	384.768817	38.248832	35.938447	1.000000	376.240000	40.490000	376.540000	40.130000	13.170000	20.180000	17.500000	50.058844
529.000000	55.471954	388.510878	38.246239	35.949467	1.000000	376.420000	38.420000	376.670000	38.090000	13.171000	20.070000	18.000000	50.049578
530.000000	55.545854	427.056264	38.249156	35.958867	1.000000	376.130000	41.850000	376.380000	41.470000	13.170000	20.190000	18.000000	50.049578
531.000000	55.597713	420.177794	38.250776	35.970212	1.000000	376.290000	38.580000	376.560000	38.260000	13.170000	20.280000	18.000000	50.047442
532.000000	55.691060	417.841710	38.252721	35.977991	1.000000	376.350000	38.370000	376.570000	38.010000	13.170000	20.250000	18.000000	50.056708
533.000000	55.741299	429.132783	38.255313	35.986095	1.000000	375.820000	44.950000	376.060000	44.560000	13.170000	20.260000	18.000000	50.034613
534.000000	55.813902	419.918229	38.259202	35.986419	1.000000	376.180000	40.090000	376.440000	39.760000	13.171000	20.240000	18.000000	50.056708
535.000000	55.886829	428.332458	38.265036	35.995495	1.000000	375.970000	43.040000	376.190000	42.650000	13.170000	20.080000	18.000000	50.028199
536.000000	55.938040	415.592148	38.269897	36.004895	1.000000	375.840000	44.860000	376.090000	44.470000	13.171000	20.050000	18.000000	50.050294
537.000000	55.985038	389.700550	38.273462	36.014294	1.000000	376.010000	42.580000	376.250000	42.190000	13.170000	20.040000	17.500000	50.045306
538.000000	55.985686	378.517630	38.277675	36.023046	1.000000	376.380000	37.370000	376.650000	37.050000	13.170000	20.170000	17.000000	50.048159
539.000000	55.985686	379.080020	38.284157	36.040874	1.000000	376.470000	36.090000	376.720000	35.800000	13.171000	20.010000	17.500000	50.065266
540.000000	55.985362	376.397850	38.288694	36.056756	1.000000	376.210000	39.810000	376.430000	39.480000	13.171000	20.260000	17.500000	50.052438
541.000000	56.001244	375.943611	38.288046	36.070046	1.000000	376.240000	39.140000	376.530000	38.770000	13.170000	20.070000	17.500000	50.051011
542.000000	56.034628	375.748938	38.289342	36.080742	1.000000	376.490000	35.810000	376.750000	35.470000	13.170000	20.110000	17.000000	50.068119
543.000000	55.984714	357.471244	38.293231	36.105701	1.000000	376.440000	36.170000	376.700000	35.880000	13.170000	20.200000	17.000000	50.074533
544.000000	55.985038	353.339836	38.292259	36.126770	1.000000	376.300000	37.920000	376.560000	37.640000	13.170000	20.160000	17.000000	50.055291
545.000000	55.936095	354.486248	38.295824	36.148162	1.000000	376.460000	35.970000	376.750000	35.670000	13.170000	20.190000	17.000000	50.048877
546.000000	55.937392	351.587774	38.297120	36.172149	1.000000	376.390000	37.370000	376.640000	37.030000	13.170000	20.150000	17.000000	50.070972
547.000000	55.887153	334.759317	38.296148	36.208452	1.000000	376.310000	38.340000	376.550000	38.030000	13.171000	19.960000	16.500000	50.052438
548.000000	55.838535	345.228434	38.297120	36.242486	1.000000	376.240000	39.480000	376.520000	39.130000	13.171000	20.070000	17.000000	50.039610
549.000000	55.839183	346.850715	38.298417	36.270362	1.000000	376.260000	39.150000	376.520000	38.820000	13.171000	19.970000	17.000000	50.053157
550.000000	55.773711	305.969247	38.295500	36.297589	1.000000	376.940000	30.450000	377.200000	30.180000	13.171000	20.190000	15.500000	50.068838
551.000000	55.646007	273.350596	38.294852	36.324492	1.000000	377.500000	23.950000	377.750000	23.690000	13.170000	19.990000	14.000000	50.050304
552.000000	55.449590	211.422747	38.295500	36.373437	1.000000	377.540000	24.020000	377.750000	23.820000	13.171000	20.130000	14.000000	50.046743
553.000000	55.256738	212.266333	38.296796	36.402933	1.000000	377.610000	23.490000	377.860000	23.270000	13.171000	20.130000	14.500000	50.048170
554.000000	55.068423	223.838599	38.298417	36.433726	1.000000	377.040000	30.960000	377.310000	30.700000	13.171000	20.080000	15.000000	50.044610
555.000000	54.920624	262.059524	38.300037	36.464843	1.000000	377.290000	27.610000	377.550000	27.360000	13.171000	19.910000	15.000000	50.051024
556.000000	54.815609	291.282202	38.302630	36.510870	1.000000	376.590000	36.300000	376.860000	35.970000	13.170000	20.120000	16.000000	50.051024
557.000000	54.765694	275.059398	38.301981	36.544580	1.000000	377.170000	29.120000	377.420000	28.850000	13.171000	20.040000	15.000000	50.016808
558.000000	54.625350	243.435746	38.301333	36.572780	1.000000	377.480000	25.280000	377.710000	25.030000	13.170000	20.230000	14.500000	50.047464
559.000000	54.473661	238.244448	38.302306	36.591256	1.000000	377.420000	26.370000	377.650000	26.130000	13.171000	20.050000	14.500000	50.022515
560.000000	54.325538	238.352600	38.301333	36.625938	1.000000	377.710000	22.800000	377.970000	22.590000	13.170000	20.200000	14.000000	50.036064
561.000000	54.130417	200.456132	38.301981	36.658352	1.000000	377.920000	20.990000	378.180000	20.780000	13.171000	20.120000	12.500000	50.031078
562.000000	53.837736	124.100807	38.299065	36.679097	1.000000	378.220000	17.730000	378.460000	17.560000	13.170000	20.100000	12.500000	50.021810
563.000000	53.542786	128.643191	38.297444	36.703083	1.000000	378.980000	9.380000	379.220000	9.280000	13.171000	20.040000	9.500000	50.029651
564.000000	53.112677	77.184463	38.294528	36.730310	1.000000	378.500000	15.650000	378.750000	15.500000	13.171000	19.940000	11.500000	50.010410
565.000000	52.868290	190.376363	38.291611	36.762399	1.000000	378.090000	20.720000	378.360000	20.530000	13.171000	20.100000	12.500000	50.024664
566.000000	52.620013	151.549789	38.289666	36.781848	1.000000	378.110000	20.770000	378.340000	20.580000	13.171000	20.000000	12.500000	50.018251
567.000000	52.380488	152.004027	38.287722	36.799999	1.000000	378.260000	18.880000	378.500000	18.670000	13.170000	20.180000	12.500000	50.018251
568.000000	52.138370	162.754338	38.283509	36.822689	1.000000	377.750000	25.270000	377.990000	25.040000	13.171000	19.980000	14.000000	50.013265
569.000000	52.033354	251.547147	38.278323	36.853157	1.000000	377.640000	26.320000	377.890000	26.070000	13.171000	20.070000	14.500000	50.008279
570.000000	51.967234	270.538643	38.275407	36.879412	1.000000	377.230000	30.760000	377.490000	30.480000	13.171000	20.040000	15.500000	50.017547
571.000000	51.935146	311.917609	38.269573	36.905992	1.000000	377.180000	31.340000	377.450000	31.070000	13.171000	19.940000	15.500000	50.016120
572.000000	51.933525	358.336460	38.266008	36.935812	1.000000	376.870000	34.700000	377.130000	34.400000	13.170000	20.240000	16.500000	49.994025
573.000000	52.047940	427.510502	38.257906	36.985081	1.000000	376.590000	37.580000	376.820000	37.260000	13.171000	20.100000	17.000000	50.033229
574.000000	52.128646	363.095150	38.254665	37.019763	1.000000	377.030000	32.040000	377.290000	31.780000	13.170000	20.110000	15.000000	50.001866
575.000000	52.077111	265.866475	38.251424	37.048287	1.000000	377.400000	27.610000	377.640000	27.370000	13.171000	20.060000	14.500000	50.006148
576.000000	51.982467	289.292204	38.246239	37.074866	1.000000	377.220000	30.160000	377.460000	29.880000	13.171000	19.980000	14.500000	50.006149
577.000000	51.935146	269.478753	38.238137	37.112790	1.000000	377.640000	25.220000	377.880000	24.970000	13.170000	19.980000	13.500000	50.018272
578.000000	51.770168	200.239828	38.231655	37.146824	1.000000	377.930000	22.250000	378.160000	22.070000	13.171000	20.060000	12.500000	50.036083
579.000000	51.523512	120.856246	38.226794	37.175348	1.000000	378.360000	17.810000	378.570000	17.640000	13.171000	20.150000	11.500000	50.043222
580.000000	51.230183	107.834744	38.222581	37.201279	1.000000	378.310000	18.500000	378.600000	18.310000	13.170000	19.950000	11.500000	50.027541
581.000000	50.905738	46.079944	38.216099	37.233369	1.000000	378.650000	15.270000	378.910000	15.110000	13.171000	19.980000	10.500000	50.014715
582.000000	50.550177	10.519563	38.210266	37.266430	1.000000	379.060000	11.010000	379.290000	10.900000	13.171000	19.980000	9.500000	50.030396
583.000000	50.082471	-55.530185	38.207673	37.291389	1.000000	379.840000	1.920000	380.070000	1.830000	13.171000	20.020000	7.500000	50.016844
584.000000	49.488681	-165.221350	38.206052	37.313754	1.000000	380.200000	-1.260000	380.460000	-1.310000	13.171000	19.900000	5.500000	50.039665
585.000000	48.755520	-319.424550	38.200867	37.335147	1.000000	381.800000	-19.020000	382.060000	-18.960000	13.171000	20.070000	0.000000	50.035381
586.000000	47.902758	-179.251615	38.198274	37.369830	1.000000	378.550000	21.580000	378.830000	21.400000	13.170000	20.020000	11.500000	50.033252
587.000000	47.705045	161.348361	38.194385	37.388630	1.000000	378.540000	20.730000	378.770000	20.560000	13.172000	19.940000	12.500000	50.034680
588.000000	47.673929	306.769572	38.190821	37.407754	1.000000	377.760000	28.940000	378.030000	28.690000	13.171000	19.790000	14.500000	50.011158
589.000000	47.763062	374.862091	38.187904	37.424933	1.000000	377.040000	37.110000	377.280000	36.790000	13.171000	19.990000	17.000000	50.012586
590.000000	48.033055	550.717311	38.185311	37.455726	1.000000	376.310000	44.840000	376.560000	44.440000	13.171000	20.010000	18.500000	50.007601
591.000000	48.358472	532.180050	38.181098	37.491381	1.000000	375.970000	47.690000	376.230000	47.290000	13.171000	19.990000	19.500000	50.015442
592.000000	48.750010	589.457376	38.181098	37.514718	1.000000	376.450000	40.810000	376.670000	40.460000	13.171000	19.940000	17.500000	50.040392
593.000000	48.991804	406.269442	38.178181	37.538056	1.000000	376.740000	36.980000	377.040000	36.650000	13.171000	20.030000	16.000000	50.024711
594.000000	49.130852	407.653788	38.174616	37.578249	1.000000	377.000000	33.740000	377.260000	33.450000	13.171000	19.890000	16.000000	50.023283
595.000000	49.187573	311.052392	38.167486	37.617145	1.000000	377.620000	26.670000	377.870000	26.410000	13.171000	19.860000	13.500000	50.061786
596.000000	49.122425	248.151174	38.161977	37.644697	1.000000	377.700000	25.520000	377.970000	25.300000	13.171000	20.010000	13.500000	50.066070
597.000000	49.040098	251.309213	38.159384	37.663821	1.000000	377.870000	23.890000	378.140000	23.670000	13.171000	19.910000	13.000000	50.077466
598.000000	48.944158	197.189941	38.153227	37.688131	1.000000	377.830000	25.070000	378.080000	24.830000	13.171000	19.960000	13.000000	50.088163
599.000000	48.844977	236.795211	38.143828	37.730269	1.000000	378.760000	13.500000	379.000000	13.340000	13.171000	20.040000	10.000000	50.081751
600.000000	48.551648	59.836880	38.139291	37.754255	1.000000	378.980000	12.270000	379.210000	12.140000	13.172000	19.760000	10.000000	50.103844
601.000000	48.218776	46.815378	38.135726	37.773054	1.000000	379.000000	12.220000	379.260000	12.120000	13.171000	19.890000	10.000000	50.101717
602.000000	47.901462	49.389396	38.128272	37.798013	1.000000	378.700000	16.820000	378.930000	16.640000	13.171000	20.040000	11.500000	50.101717
603.000000	47.771165	266.017888	38.121466	37.838854	1.000000	377.780000	27.090000	378.060000	26.840000	13.171000	19.920000	14.000000	50.120952
604.000000	47.771165	288.340467	38.116281	37.865757	1.000000	377.670000	27.900000	377.930000	27.660000	13.171000	20.140000	14.000000	50.103145
605.000000	47.771814	291.974375	38.109799	37.887798	1.000000	377.090000	35.060000	377.330000	34.770000	13.171000	19.870000	16.500000	50.100289
606.000000	48.154924	741.497543	38.106883	37.904329	1.000000	375.050000	58.280000	375.250000	57.780000	13.171000	19.960000	23.000000	50.110986
607.000000	48.814834	805.199114	38.101049	37.940633	1.000000	375.820000	46.300000	376.090000	45.900000	13.171000	20.000000	18.500000	50.112414
608.000000	49.136686	495.019007	38.096836	37.965267	1.000000	376.880000	33.180000	377.150000	32.910000	13.170000	20.090000	15.500000	50.119557
609.000000	49.185628	330.000628	38.091975	37.989253	1.000000	377.860000	22.030000	378.110000	21.820000	13.170000	20.000000	12.500000	50.118128
610.000000	48.998287	60.940031	38.088410	38.017129	1.000000	379.190000	7.440000	379.470000	7.330000	13.171000	19.990000	8.500000	50.132380
611.000000	48.395098	-321.824179	38.083873	38.053756	1.000000	381.630000	-20.060000	381.860000	-19.960000	13.171000	20.080000	0.000000	50.155900
612.000000	47.307673	-533.964361	38.078039	38.091680	1.000000	381.920000	-20.550000	382.160000	-20.450000	13.172000	19.840000	0.000000	50.160186
613.000000	46.253308	-487.982280	38.073178	38.118583	1.000000	379.810000	6.780000	380.040000	6.700000	13.172000	19.970000	9.000000	50.150917
614.000000	46.016051	209.843727	38.070909	38.146459	1.000000	378.270000	23.980000	378.530000	23.770000	13.171000	20.100000	13.000000	50.163043
615.000000	46.063697	329.719433	38.067668	38.175955	1.000000	377.740000	29.210000	378.000000	28.930000	13.170000	19.960000	14.500000	50.153775
616.000000	46.251039	449.724931	38.064104	38.200265	1.000000	376.020000	48.730000	376.270000	48.330000	13.171000	20.000000	20.000000	50.161614
617.000000	46.736572	666.764466	38.057946	38.218093	1.000000	375.680000	51.950000	375.900000	51.490000	13.171000	20.030000	20.500000	50.186563
618.000000	47.421763	885.599371	38.056974	38.232355	1.000000	373.620000	74.530000	373.850000	73.950000	13.171000	19.960000	27.000000	50.165901
619.000000	48.454736	1137.766810	38.054057	38.251155	1.000000	372.550000	84.150000	372.760000	83.470000	13.170000	20.040000	30.000000	50.168759
620.000000	49.487385	976.252453	38.048872	38.285837	1.000000	373.220000	74.450000	373.510000	73.830000	13.171000	19.930000	27.000000	50.179456
621.000000	50.374180	976.230823	38.045307	38.312092	1.000000	372.820000	77.860000	373.090000	77.200000	13.171000	20.090000	28.000000	50.196565
622.000000	51.256761	994.832984	38.044659	38.332837	1.000000	373.070000	73.510000	373.300000	72.920000	13.170000	20.070000	27.500000	50.248584
623.000000	52.134804	971.537022	38.040770	38.352285	1.000000	372.830000	75.040000	373.080000	74.400000	13.171000	20.140000	26.000000	50.238621
624.000000	52.776240	736.760483	38.034936	38.384374	1.000000	374.260000	57.900000	374.500000	57.380000	13.170000	20.100000	22.000000	50.265692
625.000000	53.166481	629.668310	38.031047	38.425540	1.000000	374.690000	52.870000	374.900000	52.390000	13.170000	19.970000	20.500000	50.262139
626.000000	53.493843	591.014765	38.029427	38.453091	1.000000	375.270000	45.360000	375.520000	44.960000	13.171000	20.090000	19.500000	50.284228
627.000000	53.739527	528.308206	38.025213	38.472539	1.000000	374.910000	49.970000	375.160000	49.520000	13.170000	19.910000	20.000000	50.319138
628.000000	54.023457	581.756950	38.022621	38.500739	1.000000	374.940000	49.220000	375.150000	48.810000	13.170000	19.980000	20.500000	50.326282
629.000000	54.313545	567.156423	38.017111	38.546442	1.000000	374.950000	49.020000	375.160000	48.600000	13.170000	19.950000	20.000000	50.321301
630.000000	54.567656	527.680925	38.013871	38.587931	1.000000	375.190000	45.980000	375.450000	45.600000	13.171000	20.000000	19.000000	50.335550
631.000000	54.805561	612.731698	38.012574	38.617752	1.000000	374.190000	57.530000	374.450000	57.050000	13.171000	20.080000	22.000000	50.334121
632.000000	55.173439	640.721450	38.010630	38.651138	1.000000	374.220000	56.180000	374.490000	55.700000	13.170000	19.950000	22.000000	50.333427
633.000000	55.399351	455.175794	38.004796	38.707862	1.000000	376.420000	29.140000	376.690000	28.880000	13.171000	19.790000	15.000000	50.342696
634.000000	55.203582	134.072423	38.000583	38.740275	1.000000	377.590000	17.490000	377.840000	17.300000	13.171000	19.940000	11.500000	50.342696
635.000000	54.560202	-273.139810	37.999611	38.773337	1.000000	379.800000	-6.640000	380.040000	-6.690000	13.172000	20.000000	4.500000	50.348413
636.000000	53.535979	-551.821060	37.998639	38.791813	1.000000	381.520000	-24.430000	381.790000	-24.300000	13.171000	19.890000	0.000000	50.358374
637.000000	52.297189	-598.105797	37.993453	38.818716	1.000000	382.610000	-35.310000	382.850000	-35.120000	13.171000	21.390000	0.000000	50.345554
638.000000	50.249393	-1450.601059	37.991833	38.838164	1.000000	385.530000	-65.950000	385.740000	-65.450000	13.171000	20.690000	0.000000	50.337715
639.000000	48.293648	-1072.951305	37.991833	38.857288	1.000000	384.490000	-51.010000	384.680000	-50.630000	13.171000	20.710000	0.000000	50.320608
640.000000	46.837049	-541.855033	37.988268	38.877385	1.000000	382.140000	-21.590000	382.410000	-21.450000	13.171000	19.940000	0.000000	50.323467
641.000000	46.049436	-108.559832	37.987620	38.912067	1.000000	378.190000	25.870000	378.500000	25.660000	13.170000	19.970000	13.000000	50.319916
642.000000	45.949607	205.604168	37.985351	38.927950	1.000000	378.640000	18.650000	378.920000	18.480000	13.171000	20.080000	11.000000	50.340574
643.000000	45.887051	308.045766	37.984703	38.938646	1.000000	377.450000	31.620000	377.720000	31.360000	13.171000	19.800000	15.500000	50.319916
644.000000	46.153155	547.191554	37.985675	38.946426	1.000000	375.730000	51.070000	375.980000	50.630000	13.171000	20.010000	20.500000	50.321345
645.000000	46.802044	818.566711	37.983731	38.956798	1.000000	374.980000	57.730000	375.200000	57.260000	13.169000	20.010000	22.500000	50.313506
646.000000	47.486911	798.839772	37.980490	38.973005	1.000000	374.650000	60.070000	374.860000	59.560000	13.170000	20.020000	23.000000	50.316365
647.000000	48.179557	850.471574	37.980166	38.976570	1.000000	374.260000	63.190000	374.510000	62.670000	13.170000	19.960000	23.500000	50.314936
648.000000	48.901699	832.496698	37.980166	38.988239	1.000000	374.190000	62.710000	374.420000	62.200000	13.171000	19.980000	23.500000	50.294277
649.000000	49.583649	817.658233	37.976925	39.013846	1.000000	374.000000	64.040000	374.230000	63.500000	13.170000	20.150000	23.500000	50.320654
650.000000	50.262358	803.230746	37.975629	39.041721	1.000000	373.960000	63.310000	374.190000	62.810000	13.169000	20.040000	23.500000	50.328493
651.000000	50.856796	778.766747	37.974332	39.067328	1.000000	374.460000	56.140000	374.710000	55.680000	13.171000	20.080000	22.000000	50.319224
652.000000	51.295655	596.746824	37.973684	39.077052	1.000000	374.920000	50.470000	375.130000	50.050000	13.170000	20.100000	21.500000	50.327803
653.000000	51.755259	680.175322	37.973360	39.096500	1.000000	374.550000	53.780000	374.830000	53.320000	13.171000	19.910000	21.500000	50.326373
654.000000	52.129618	583.617165	37.968175	39.138962	1.000000	375.040000	48.510000	375.270000	48.090000	13.171000	19.820000	19.500000	50.352750
655.000000	52.387943	499.020632	37.965906	39.174293	1.000000	376.570000	29.560000	376.830000	29.270000	13.171000	20.080000	13.000000	50.349890
656.000000	52.136101	43.830382	37.967202	39.204113	1.000000	378.200000	11.690000	378.460000	11.580000	13.171000	20.050000	9.500000	50.360589
657.000000	51.648299	-61.583304	37.962989	39.236851	1.000000	378.830000	6.080000	379.070000	5.960000	13.171000	20.150000	8.500000	50.369858
658.000000	51.161469	-29.674719	37.963313	39.281258	1.000000	377.920000	18.250000	378.160000	18.080000	13.171000	20.050000	11.500000	50.371288
659.000000	50.902821	110.971152	37.958776	39.323395	1.000000	378.170000	15.300000	378.430000	15.140000	13.171000	19.940000	11.500000	50.374148
660.000000	50.761180	352.755816	37.955211	39.353540	1.000000	376.000000	41.300000	376.240000	40.970000	13.171000	19.880000	18.000000	50.372717
661.000000	50.995843	531.076899	37.953915	39.374609	1.000000	375.730000	43.360000	375.960000	42.990000	13.171000	19.870000	19.000000	50.358470
662.000000	51.264864	513.339963	37.953591	39.405078	1.000000	375.510000	45.070000	375.780000	44.680000	13.171000	19.900000	18.500000	50.374148
663.000000	51.530967	510.095402	37.950998	39.427119	1.000000	375.530000	44.520000	375.740000	44.120000	13.171000	19.960000	18.500000	50.342792
664.000000	51.778271	515.243439	37.947757	39.444622	1.000000	375.480000	44.500000	375.690000	44.120000	13.170000	19.990000	19.000000	50.345652
665.000000	51.998349	514.832461	37.946461	39.465691	1.000000	375.410000	44.320000	375.670000	43.950000	13.171000	19.960000	19.000000	50.362760
666.000000	52.276445	558.958497	37.945165	39.485463	1.000000	375.170000	47.080000	375.410000	46.680000	13.170000	20.080000	19.500000	50.370599
667.000000	52.558430	527.875598	37.941276	39.505560	1.000000	375.130000	47.020000	375.350000	46.620000	13.170000	20.010000	18.500000	50.348513
668.000000	52.688727	403.500750	37.940952	39.514635	1.000000	376.600000	28.840000	376.890000	28.580000	13.170000	20.070000	14.500000	50.374890
669.000000	52.566857	209.778836	37.940952	39.520470	1.000000	377.450000	19.510000	377.720000	19.320000	13.171000	20.190000	11.500000	50.374890
670.000000	52.325387	193.534403	37.939007	39.524360	1.000000	376.890000	27.690000	377.100000	27.430000	13.171000	20.120000	15.000000	50.384159
671.000000	52.275797	284.122538	37.939007	39.532139	1.000000	376.740000	29.180000	377.010000	28.920000	13.171000	20.200000	15.000000	50.379868
672.000000	52.226855	285.874600	37.939331	39.536677	1.000000	375.790000	40.820000	376.030000	40.450000	13.170000	20.080000	18.000000	50.385589
673.000000	52.370116	444.468742	37.937711	39.536353	1.000000	375.790000	40.100000	376.010000	39.760000	13.171000	20.090000	17.500000	50.364934
674.000000	52.517267	441.635159	37.939979	39.540242	1.000000	375.830000	38.950000	376.110000	38.630000	13.171000	20.200000	17.000000	50.350686
675.000000	52.518888	330.671171	37.943868	39.549966	1.000000	376.560000	30.420000	376.830000	30.170000	13.170000	20.260000	15.500000	50.377750
676.000000	52.469945	291.693179	37.946785	39.561635	1.000000	377.390000	20.260000	377.640000	20.070000	13.170000	20.100000	13.000000	50.361386
677.000000	52.259915	141.145565	37.948405	39.562608	1.000000	378.150000	11.990000	378.420000	11.880000	13.172000	20.090000	10.000000	50.345708
678.000000	51.822028	-27.339944	37.952619	39.561635	1.000000	378.920000	4.440000	379.160000	4.320000	13.171000	20.240000	8.000000	50.352117
679.000000	51.278801	-88.454830	37.954563	39.560014	1.000000	379.450000	0.000000	379.670000	-0.590000	13.171000	20.060000	6.500000	50.360700
680.000000	50.604629	-251.002691	37.962017	39.571359	1.000000	379.970000	-5.390000	380.200000	-5.400000	13.171000	19.900000	5.000000	50.356409
681.000000	49.976159	-58.254089	37.967851	39.575573	1.000000	378.240000	15.960000	378.510000	15.820000	13.172000	19.980000	11.500000	50.354978
682.000000	49.720752	141.599803	37.969471	39.578490	1.000000	377.940000	19.150000	378.180000	19.010000	13.171000	20.000000	12.000000	50.330775
683.000000	49.528224	158.622931	37.974332	39.584000	1.000000	377.430000	25.320000	377.700000	25.110000	13.171000	19.910000	13.000000	50.322936
684.000000	49.430664	300.734689	37.981462	39.595345	1.000000	377.100000	27.980000	377.370000	27.720000	13.171000	20.010000	15.000000	50.347884
685.000000	49.518501	382.411103	37.985351	39.606690	1.000000	376.440000	35.820000	376.710000	35.520000	13.170000	20.020000	16.000000	50.321506
686.000000	49.594021	372.699050	37.988592	39.617386	1.000000	376.560000	34.200000	376.810000	33.900000	13.171000	20.020000	16.000000	50.322936
687.000000	49.672458	366.707428	37.992805	39.631973	1.000000	376.530000	33.990000	376.770000	33.720000	13.171000	20.010000	16.000000	50.303712
688.000000	49.773584	422.146161	37.997342	39.644290	1.000000	376.000000	39.670000	376.240000	39.340000	13.170000	20.190000	18.000000	50.328660
689.000000	50.041632	506.180298	37.999611	39.650448	1.000000	375.860000	40.530000	376.130000	40.180000	13.171000	20.170000	18.500000	50.319390
690.000000	50.310976	526.534513	38.003500	39.657255	1.000000	375.360000	46.600000	375.580000	46.200000	13.170000	20.060000	19.000000	50.322936
691.000000	50.654868	597.244324	38.004472	39.661469	1.000000	374.640000	54.320000	374.850000	53.840000	13.170000	20.010000	21.500000	50.320821
692.000000	51.117713	680.132061	38.003500	39.661793	1.000000	374.450000	54.790000	374.710000	54.310000	13.170000	20.050000	21.500000	50.335816
693.000000	51.529995	567.826965	38.006092	39.669248	1.000000	375.100000	46.750000	375.360000	46.390000	13.170000	20.050000	19.000000	50.334384
694.000000	51.784754	505.855842	38.008037	39.669572	1.000000	375.100000	46.700000	375.320000	46.310000	13.171000	20.100000	19.000000	50.330091
695.000000	52.080676	592.723568	38.010630	39.672814	1.000000	374.830000	49.260000	375.090000	48.850000	13.171000	20.020000	20.500000	50.335816
696.000000	52.436885	587.489008	38.010630	39.674758	1.000000	374.450000	53.310000	374.690000	52.850000	13.171000	20.150000	21.500000	50.362195
697.000000	52.827127	635.551782	38.013222	39.680917	1.000000	374.290000	54.330000	374.530000	53.870000	13.170000	19.970000	21.000000	50.366489
698.000000	53.200514	625.017772	38.011926	39.678972	1.000000	374.330000	53.150000	374.580000	52.700000	13.170000	20.040000	21.000000	50.382166
699.000000	53.583949	619.134300	38.012898	39.669572	1.000000	374.230000	53.820000	374.470000	53.370000	13.171000	19.980000	21.500000	50.357218
700.000000	53.933351	631.485265	38.012574	39.659524	1.000000	374.160000	53.710000	374.440000	53.270000	13.170000	20.120000	21.500000	50.372896
701.000000	54.314842	628.543529	38.017111	39.653690	1.000000	373.970000	56.300000	374.210000	55.820000	13.170000	20.150000	21.500000	50.387143
702.000000	54.633129	585.390859	38.020352	39.652069	1.000000	374.030000	55.120000	374.300000	54.640000	13.170000	20.020000	21.000000	50.422791
703.000000	55.000034	692.093679	38.020676	39.650448	1.000000	374.390000	49.120000	374.660000	48.720000	13.170000	20.070000	20.500000	50.408545
704.000000	55.255765	565.512511	38.021649	39.654338	1.000000	373.890000	55.550000	374.130000	55.060000	13.171000	20.020000	22.000000	50.425654
705.000000	55.595444	587.835095	38.023917	39.662117	1.000000	374.530000	46.920000	374.770000	46.510000	13.171000	19.890000	20.000000	50.439218
706.000000	55.837238	531.466246	38.025862	39.659848	1.000000	374.600000	46.400000	374.820000	45.990000	13.171000	19.890000	20.500000	50.427085
707.000000	56.071254	567.459248	38.027482	39.656931	1.000000	374.080000	51.990000	374.350000	51.570000	13.170000	20.070000	21.000000	50.424973
708.000000	56.270912	498.025634	38.030399	39.657255	1.000000	374.720000	44.930000	374.960000	44.550000	13.171000	20.080000	18.500000	50.420678
709.000000	56.323420	422.492248	38.034612	39.649476	1.000000	375.270000	37.470000	375.500000	37.170000	13.170000	20.140000	18.500000	50.431380
710.000000	56.420981	482.624782	38.037853	39.639428	1.000000	374.340000	49.460000	374.590000	49.050000	13.171000	20.080000	19.500000	50.428517
711.000000	56.569428	514.399853	38.040121	39.634890	1.000000	374.100000	52.030000	374.340000	51.580000	13.170000	20.010000	20.500000	50.396481
712.000000	56.765845	536.160045	38.043686	39.633917	1.000000	374.010000	52.320000	374.240000	51.860000	13.170000	20.070000	21.500000	50.418566
713.000000	57.070843	629.495267	38.045631	39.633917	1.000000	373.510000	57.300000	373.770000	56.800000	13.171000	20.050000	22.500000	50.421429
714.000000	57.436776	680.932386	38.050816	39.628731	1.000000	372.410000	70.140000	372.690000	69.570000	13.170000	19.950000	24.000000	50.438538
715.000000	57.878553	750.474165	38.053085	39.625814	1.000000	372.240000	71.110000	372.510000	70.510000	13.171000	19.950000	25.000000	50.429268
716.000000	58.367004	783.936416	38.056326	39.623221	1.000000	372.000000	72.250000	372.280000	71.630000	13.170000	20.080000	27.000000	50.405752
717.000000	58.926761	821.227252	38.060215	39.616738	1.000000	372.110000	69.990000	372.370000	69.400000	13.170000	20.170000	25.000000	50.422861
718.000000	59.154294	409.514003	38.066048	39.603449	1.000000	375.130000	33.650000	375.370000	33.340000	13.170000	20.240000	17.500000	50.399345
719.000000	59.058354	338.371595	38.071558	39.603449	1.000000	375.230000	34.290000	375.480000	33.960000	13.171000	20.030000	16.000000	50.419318
720.000000	58.913148	290.373725	38.076419	39.598262	1.000000	376.290000	21.820000	376.570000	21.640000	13.170000	20.190000	12.500000	50.405073
721.000000	58.521934	106.255724	38.079336	39.592428	1.000000	376.310000	23.850000	376.580000	23.640000	13.171000	20.150000	12.500000	50.430020
722.000000	58.117755	97.127694	38.086465	39.583676	1.000000	377.160000	14.600000	377.410000	14.430000	13.171000	20.160000	11.000000	50.395802
723.000000	57.642917	26.439539	38.091327	39.577518	1.000000	377.490000	11.220000	377.700000	11.080000	13.171000	20.010000	11.500000	50.407937
724.000000	57.285736	189.554408	38.098457	39.574601	1.000000	375.990000	29.460000	376.240000	29.170000	13.171000	20.130000	15.500000	50.388717
725.000000	57.154791	274.734942	38.104614	39.571359	1.000000	375.960000	29.570000	376.250000	29.310000	13.170000	20.200000	14.500000	50.374471
726.000000	56.912024	212.461006	38.110124	39.562283	1.000000	376.040000	29.100000	376.320000	28.810000	13.171000	20.300000	14.500000	50.367311
727.000000	56.675092	188.170062	38.118550	39.542835	1.000000	376.610000	22.410000	376.870000	22.220000	13.171000	20.140000	13.500000	50.354497
728.000000	56.316614	30.787250	38.122763	39.530194	1.000000	377.980000	6.860000	378.220000	6.740000	13.171000	20.210000	9.500000	50.339574
729.000000	55.773387	-51.574040	38.127624	39.518525	1.000000	379.270000	-7.890000	379.520000	-7.860000	13.171000	20.240000	5.000000	50.318167
730.000000	54.907983	-274.458526	38.132485	39.505884	1.000000	379.500000	-8.250000	379.720000	-8.260000	13.172000	20.070000	5.000000	50.328870
731.000000	54.190055	-77.234941	38.139291	39.489029	1.000000	377.670000	14.900000	377.910000	14.790000	13.171000	20.110000	11.500000	50.301811
732.000000	53.838708	115.210711	38.143828	39.474118	1.000000	377.100000	21.220000	377.380000	21.030000	13.171000	20.040000	12.500000	50.298946
733.000000	53.543758	122.651570	38.147069	39.460829	1.000000	377.880000	11.690000	378.150000	11.550000	13.171000	20.140000	10.500000	50.296837
734.000000	53.135041	28.364645	38.148365	39.449484	1.000000	378.210000	8.610000	378.460000	8.530000	13.172000	20.150000	9.500000	50.281158
735.000000	52.650805	-12.272001	38.154847	39.427119	1.000000	378.350000	7.020000	378.630000	6.950000	13.171000	20.150000	9.000000	50.264047
736.000000	52.138045	-70.338709	38.153551	39.408319	1.000000	378.750000	3.290000	379.020000	3.200000	13.171000	20.230000	7.000000	50.265479
737.000000	51.486238	-180.094728	38.156144	39.391788	1.000000	379.560000	-5.380000	379.790000	-5.390000	13.171000	20.010000	4.500000	50.269777
738.000000	50.659406	-360.564137	38.156792	39.379471	1.000000	380.700000	-17.860000	380.970000	-17.790000	13.171000	20.130000	0.500000	50.249800
739.000000	49.570036	-549.594377	38.158412	39.359050	1.000000	381.200000	-21.510000	381.450000	-21.400000	13.171000	20.020000	0.000000	50.222740
740.000000	48.447929	-540.039098	38.156468	39.343168	1.000000	381.240000	-20.660000	381.480000	-20.560000	13.171000	20.310000	0.000000	50.211359
741.000000	47.443155	-386.052090	38.154523	39.329230	1.000000	380.360000	-9.120000	380.600000	-9.100000	13.172000	20.170000	3.000000	50.214901
742.000000	46.642577	-350.122508	38.156144	39.319182	1.000000	380.940000	-15.410000	381.170000	-15.360000	13.172000	19.980000	0.000000	50.209926
743.000000	45.620624	-525.943980	38.150634	39.307837	1.000000	381.350000	-19.220000	381.590000	-19.140000	13.171000	20.600000	0.000000	50.225606
744.000000	44.504677	-627.247237	38.150634	39.292602	1.000000	381.460000	-19.490000	381.700000	-19.410000	13.162000	28.200000	0.000000	50.220632
745.000000	43.059747	-1229.705456	38.147069	39.282230	1.000000	386.700000	-81.690000	386.880000	-81.100000	13.163000	27.760000	0.000000	50.237744
746.000000	39.547901	-2543.405674	38.144152	39.270561	1.000000	388.990000	-103.390000	389.210000	-102.640000	13.164000	27.020000	0.000000	50.209251
747.000000	35.677578	-2651.410720	38.142208	39.259541	1.000000	387.310000	-78.780000	387.540000	-78.220000	13.165000	25.960000	0.000000	50.239177
748.000000	32.518053	-2130.798850	38.134430	39.241713	1.000000	386.660000	-68.910000	386.890000	-68.400000	13.166000	25.730000	0.000000	50.242043
749.000000	29.263237	-2347.846534	38.130217	39.236851	1.000000	385.810000	-56.860000	385.990000	-56.440000	13.166000	25.810000	0.000000	50.259154
750.000000	26.503029	-1886.079800	38.124707	39.229072	1.000000	384.960000	-46.470000	385.210000	-46.140000	13.166000	25.730000	0.000000	50.286213
751.000000	23.963223	-1589.909278	38.122763	39.218375	1.000000	385.200000	-48.830000	385.400000	-48.490000	13.166000	25.480000	0.000000	50.348926
752.000000	21.094111	-1936.147757	38.116605	39.206707	1.000000	383.570000	-28.350000	383.800000	-28.150000	13.166000	25.450000	0.000000	50.393852
753.000000	18.949083	-1481.947569	38.114661	39.196334	1.000000	383.220000	-24.470000	383.470000	-24.300000	13.164000	25.940000	0.000000	50.440883
754.000000	16.858833	-1467.290374	38.113040	39.185962	1.000000	382.910000	-20.840000	383.170000	-20.700000	13.165000	26.070000	0.000000	50.464398
755.000000	14.736818	-1531.172401	38.108503	39.176238	1.000000	382.960000	-21.300000	383.230000	-21.150000	13.165000	25.610000	0.000000	50.484374
756.000000	12.211598	-1866.147738	38.103966	39.163272	1.000000	382.710000	-17.590000	382.920000	-17.460000	13.165000	25.560000	0.000000	50.515726
757.000000	9.549600	-1941.811749	38.103966	39.149010	1.000000	382.360000	-13.750000	382.610000	-13.640000	13.164000	25.810000	0.000000	50.517159
758.000000	6.861996	-1853.933405	38.103318	39.138638	1.000000	381.680000	-5.350000	381.940000	-5.320000	13.163000	27.490000	0.000000	50.540000
759.000000	5.067018	-1082.874095	38.101049	39.128914	1.000000	381.060000	1.630000	381.310000	1.600000	13.162000	28.450000	0.000000	50.551377
760.000000	3.549812	-1114.371930	38.101697	39.123080	1.000000	380.810000	4.040000	381.070000	3.990000	13.162000	27.950000	0.000000	50.538567
761.000000	2.229346	-818.115025	38.104290	39.106873	1.000000	380.750000	4.700000	381.030000	4.610000	13.161000	29.210000	0.000000	50.563514
762.000000	0.739042	-1068.757359	38.106235	39.097797	1.000000	380.730000	4.680000	380.990000	4.580000	13.162000	28.300000	0.000000	50.560648
763.000000	-0.037550	-8.359092	38.107855	39.088073	1.000000	380.810000	2.980000	381.090000	2.920000	13.162000	27.870000	0.000000	50.521458
764.000000	-0.000925	-3.170704	38.111744	39.080618	1.000000	380.850000	3.140000	381.050000	3.080000	13.159000	30.990000	0.000000	50.495839
765.000000	-0.001897	-3.040994	38.115309	39.064735	0.000000	380.850000	3.140000	381.050000	3.080000	13.159000	30.990000	0.000000	50.472324
