Timestamp [sec]	Dyno Speed [mph]	Dyno Tractive Effort [N]	Cell Temp [C]	Cell RH [%]	Phase #	HV Battery Voltage w/500A max clamp [V]	HV Battery Current w/500A max clamp [A]	HV Battery Voltage w/200A max clamp [V]	HV Battery Current w/200A max clamp [A]	DCDC Outlet Voltage [V]	DCDC Outlet Current [A]	Accelerator Pedal Position [%]	Inverter Cooling Hose Temp [C]
-10.000000	-0.004166	-2.738338	37.773724	39.882529	1.000000	0.000000	0.000000	0.000000	0.000000	0.000000	0.000000	0.000000	0.000000
-9.000000	-0.004166	-2.738338	37.773076	39.896143	1.000000	0.000000	0.000000	0.000000	0.000000	12.324995	0.000000	0.000000	33.645847
-8.000000	-0.004166	-2.716720	37.770807	39.904247	1.000000	0.000000	0.000000	0.000000	0.000000	12.324001	0.000000	0.000000	33.643140
-7.000000	-0.004166	-2.716720	37.770483	39.916564	1.000000	0.000000	0.000000	0.000000	0.000000	12.312006	0.000000	0.000000	33.634010
-6.000000	-0.004490	-2.738338	37.770807	39.928233	1.000000	0.000000	0.000000	0.000000	0.000000	12.312000	0.000000	0.000000	33.620821
-5.000000	-0.004166	-2.738338	37.770159	39.934067	1.000000	0.000000	0.000000	0.000000	0.000000	12.308001	0.000000	0.000000	33.638071
-4.000000	-0.004490	-2.738338	37.771131	39.941198	1.000000	0.000000	0.000000	0.000000	0.000000	12.306001	0.000000	0.000000	33.646019
-3.000000	-0.004814	-2.738338	37.766270	39.949626	1.000000	0.000000	0.000000	0.000000	0.000000	12.305000	0.000000	0.000000	33.663269
-2.000000	-0.004166	-2.738338	37.765622	39.959025	1.000000	0.000000	0.000000	0.000000	0.000000	12.300001	0.000000	0.000000	33.639424
-1.000000	-0.004166	-2.738338	37.762381	39.965832	1.000000	0.000000	0.000000	0.000000	0.000000	12.299000	0.000000	0.000000	33.622348
0.000000	-0.004490	-2.695101	37.762057	39.971991	1.000000	0.000000	0.000000	0.000000	0.000000	12.153000	0.000000	0.000000	33.644839
1.000000	-0.004166	-2.738338	37.760761	39.976853	1.000000	391.264000	0.336000	391.426000	0.330000	12.492600	8.382000	0.000000	33.631651
2.000000	-0.004166	-2.716720	37.758816	39.984632	1.000000	391.156000	1.666000	391.332000	1.636000	14.014200	41.430000	0.000000	33.627763
3.000000	-0.005138	-2.673483	37.759464	39.988198	1.000000	391.126000	1.808000	391.322000	1.768000	14.110600	40.916000	0.000000	33.640952
4.000000	-0.004166	-2.738338	37.755899	39.992411	1.000000	391.054000	2.714000	391.242000	2.632000	14.209400	46.586000	0.000000	33.654316
5.000000	-0.004490	-2.716720	37.753631	40.000191	1.000000	390.978000	3.308000	391.194000	3.216000	14.301800	46.412000	0.000000	33.654316
6.000000	-0.004814	-2.803193	37.752010	40.010239	1.000000	390.920000	3.920000	391.118000	3.820000	14.365000	44.882000	0.000000	33.663618
7.000000	-0.004166	-2.824811	37.752983	40.019639	1.000000	390.870000	4.172000	391.064000	4.074000	14.436000	44.320000	0.000000	33.637242
8.000000	-0.004166	-2.738338	37.750066	40.027742	1.000000	390.834000	4.200000	391.044000	4.110000	14.400000	43.676000	0.000000	33.606802
9.000000	-0.004166	-2.695101	37.751686	40.032928	1.000000	390.852000	4.104000	391.062000	4.016000	14.399800	44.060000	0.000000	33.528668
10.000000	-0.004166	-2.738338	37.747149	40.042653	1.000000	390.856000	4.064000	391.064000	3.982000	14.408200	45.384000	0.000000	33.490277
11.000000	-0.004166	-2.824811	37.746825	40.051404	1.000000	390.844000	4.160000	391.042000	4.068000	14.435800	46.574000	0.000000	33.442579
12.000000	-0.004166	-2.738338	37.747149	40.056914	1.000000	390.854000	4.158000	391.044000	4.060000	14.399400	45.484000	0.000000	33.359193
13.000000	-0.004166	-2.738338	37.743260	40.063073	1.000000	390.828000	4.160000	391.018000	4.068000	14.400800	45.390000	0.000000	33.198819
14.000000	-0.004166	-2.738338	37.743908	40.070852	1.000000	390.820000	4.224000	391.002000	4.126000	14.409400	45.570000	0.000000	32.986816
15.000000	-0.004166	-2.738338	37.743584	40.085114	1.000000	390.808000	4.316000	390.972000	4.230000	14.437800	45.946000	0.000000	32.733641
16.000000	-0.004814	-2.759956	37.742288	40.096459	1.000000	390.764000	4.306000	390.978000	4.230000	14.401000	45.184000	0.000000	32.541347
17.000000	-0.003842	-2.738338	37.741964	40.106831	1.000000	390.780000	4.324000	390.970000	4.228000	14.401200	44.986000	0.000000	32.451289
18.000000	-0.004166	-2.738338	37.741964	40.112018	1.000000	390.780000	4.280000	390.966000	4.198000	14.402000	44.492000	0.000000	32.467203
19.000000	-0.004166	-2.738338	37.740343	40.120769	1.000000	390.724000	4.828000	390.896000	4.742000	14.402600	43.700000	0.000000	32.527148
20.000000	0.522529	785.320763	37.738399	40.127900	1.000000	390.354000	8.902000	390.542000	8.820000	14.405000	42.432000	0.000000	32.621087
21.000000	2.256248	1532.413993	37.738723	40.135679	1.000000	389.518000	17.914000	389.736000	17.760000	14.405000	42.514000	3.500000	32.728575
22.000000	5.448832	2669.202680	37.737103	40.143459	1.000000	388.358000	30.454000	388.564000	30.196000	14.394400	42.596000	14.000000	32.874468
23.000000	8.622292	2435.463748	37.735806	40.155776	1.000000	387.654000	37.152000	387.846000	36.854000	14.341200	43.194000	20.000000	33.074654
24.000000	11.398705	2135.189640	37.734834	40.165176	1.000000	387.198000	40.748000	387.404000	40.412000	14.269200	44.776000	20.000000	33.274803
25.000000	13.829606	1879.820513	37.733214	40.170038	1.000000	386.964000	41.772000	387.194000	41.420000	14.154200	38.040000	20.000000	33.490812
26.000000	16.265045	1961.151003	37.733862	40.178465	1.000000	387.682000	31.452000	387.908000	31.182000	14.134800	37.688000	20.000000	33.671103
27.000000	16.563235	-120.385033	37.729973	40.190134	1.000000	389.066000	16.086000	389.280000	15.950000	14.036600	36.814000	21.000000	33.857775
28.000000	17.439656	1283.664031	37.727380	40.205045	1.000000	386.442000	46.110000	386.670000	45.702000	13.956800	36.346000	3.000000	33.937419
29.000000	19.392804	1604.118890	37.726084	40.213148	1.000000	385.890000	50.656000	386.110000	50.216000	13.896400	35.912000	18.500000	34.031412
30.000000	21.247420	1489.347797	37.723491	40.221251	1.000000	386.182000	45.474000	386.404000	45.084000	13.797000	35.226000	21.500000	34.110863
31.000000	22.351373	642.170688	37.716037	40.232920	1.000000	388.308000	20.082000	388.534000	19.906000	13.702800	36.806000	21.000000	34.175955
32.000000	22.591222	250.076280	37.710204	40.247830	1.000000	389.730000	4.232000	389.944000	4.124000	13.642800	37.304000	10.500000	34.220911
33.000000	22.011371	-395.131768	37.706963	40.262092	1.000000	390.352000	-1.430000	390.576000	-1.492000	13.555800	36.046000	2.500000	34.277871
34.000000	21.321967	-415.085440	37.699185	40.276354	1.000000	390.436000	-1.112000	390.636000	-1.294000	13.495000	35.348000	0.000000	34.285815
35.000000	20.618626	-403.670988	37.694972	40.290292	1.000000	390.418000	0.000000	390.618000	-0.504000	13.404800	34.288000	0.000000	34.328240
36.000000	19.913017	-399.455424	37.687194	40.320437	1.000000	390.442000	-0.258000	390.640000	-0.266000	13.344000	33.718000	0.000000	34.345480
37.000000	19.250515	-394.656166	37.677471	40.346044	1.000000	390.960000	-5.768000	391.152000	-5.772000	13.246000	32.760000	0.000000	34.341600
38.000000	17.862633	-1415.147076	37.670017	40.370030	1.000000	392.122000	-18.576000	392.318000	-18.476000	13.173600	32.148000	0.000000	34.342954
39.000000	15.057049	-831.929106	37.660295	40.390126	1.000000	390.368000	3.460000	390.552000	3.394000	13.172000	32.216000	0.000000	34.358840
40.000000	14.912491	160.310102	37.648952	40.421567	1.000000	389.630000	10.888000	389.832000	10.792000	13.171800	32.740000	0.000000	34.353606
41.000000	14.961109	241.575531	37.635988	40.451388	1.000000	389.174000	15.688000	389.382000	15.556000	13.171000	33.058000	3.500000	34.378790
42.000000	15.415850	514.918983	37.630155	40.475050	1.000000	388.716000	20.404000	388.916000	20.226000	13.170800	33.432000	6.000000	34.386732
43.000000	15.979819	568.692182	37.620432	40.495146	1.000000	388.022000	27.502000	388.228000	27.282000	13.170000	33.658000	8.500000	34.398738
44.000000	17.249397	1370.077594	37.607145	40.529504	1.000000	386.418000	44.706000	386.640000	44.292000	13.169800	33.638000	10.000000	34.410744
45.000000	18.908568	1242.241762	37.598719	40.569049	1.000000	386.348000	43.632000	386.538000	43.246000	13.169200	33.882000	19.000000	34.410745
46.000000	20.567415	1337.047928	37.590292	40.599518	1.000000	386.442000	40.782000	386.636000	40.430000	13.170000	33.776000	18.500000	34.430693
47.000000	21.977338	1153.686802	37.582514	40.630635	1.000000	387.606000	26.050000	387.816000	25.806000	13.170000	33.806000	18.500000	34.470404
48.000000	22.153660	-90.465330	37.573764	40.659483	1.000000	389.174000	8.632000	389.384000	8.518000	13.170000	33.886000	14.000000	34.551177
49.000000	22.039245	183.497895	37.561449	40.717179	1.000000	388.760000	13.888000	388.972000	13.752000	13.169800	34.086000	3.000000	34.649179
50.000000	22.130323	44.479295	37.555291	40.748620	1.000000	389.990000	-0.398000	390.200000	-0.408000	13.169000	34.268000	8.000000	34.724707
51.000000	21.400404	-424.921758	37.549458	40.775199	1.000000	390.564000	-5.016000	390.734000	-5.044000	13.169200	35.230000	0.000000	34.854265
52.000000	19.568477	-1685.159442	37.541356	40.806640	1.000000	391.678000	-16.286000	391.856000	-16.228000	13.170000	34.610000	0.000000	34.949718
53.000000	17.844806	-1124.489285	37.529040	40.852019	1.000000	391.194000	-9.876000	391.400000	-9.844000	13.170200	34.360000	0.000000	35.037038
54.000000	16.058580	-1274.974138	37.520290	40.891564	1.000000	389.812000	7.278000	390.006000	7.200000	13.170800	33.686000	0.000000	35.119122
55.000000	15.962965	610.071157	37.513484	40.918143	1.000000	387.772000	29.568000	387.982000	29.314000	13.169800	33.734000	0.000000	35.236821
56.000000	17.403679	1279.013488	37.506355	40.941805	1.000000	386.438000	42.706000	386.640000	42.340000	13.169200	33.850000	11.500000	35.317536
57.000000	19.247274	1581.579974	37.496632	40.976488	1.000000	385.652000	49.702000	385.834000	49.274000	13.170000	33.946000	16.500000	35.420697
58.000000	21.055216	1479.311275	37.489826	41.005336	1.000000	385.406000	50.372000	385.622000	49.950000	13.170200	33.920000	21.000000	35.505459
59.000000	22.737724	1354.828141	37.482372	41.026080	1.000000	385.656000	46.312000	385.824000	45.914000	13.171200	33.312000	21.000000	35.599315
60.000000	24.053976	959.121161	37.474594	41.048122	1.000000	387.006000	28.956000	387.206000	28.696000	13.172200	32.058000	20.500000	35.682710
61.000000	24.568355	487.383472	37.466816	41.071135	1.000000	387.600000	22.352000	387.804000	22.140000	13.173200	30.788000	16.000000	35.772678
62.000000	24.906412	370.882096	37.455797	41.105818	1.000000	388.088000	17.052000	388.306000	16.882000	13.174200	29.732000	10.500000	35.878502
63.000000	24.862332	39.179846	37.448019	41.129480	1.000000	388.582000	12.038000	388.792000	11.908000	13.175200	28.954000	8.500000	35.967101
64.000000	24.716478	43.635709	37.441538	41.158652	1.000000	388.526000	13.302000	388.732000	13.176000	13.176000	28.380000	5.500000	36.033254
65.000000	24.667536	78.979786	37.435380	41.188796	1.000000	388.534000	12.978000	388.724000	12.860000	13.176200	27.700000	6.000000	36.120487
66.000000	24.667860	183.541156	37.423713	41.233851	1.000000	388.248000	16.358000	388.444000	16.198000	13.173600	27.198000	6.000000	36.169419
67.000000	24.790701	264.936368	37.416583	41.269182	1.000000	388.200000	16.912000	388.412000	16.738000	13.159800	26.596000	7.500000	36.219701
68.000000	24.740139	-36.181822	37.409453	41.301920	1.000000	388.932000	8.510000	389.118000	8.430000	13.158600	27.374000	8.500000	36.279264
69.000000	24.567059	51.812001	37.402972	41.337899	1.000000	388.534000	12.914000	388.746000	12.784000	13.157000	28.422000	3.500000	36.342692
70.000000	24.522006	166.042159	37.391629	41.395595	1.000000	387.992000	19.480000	388.206000	19.312000	13.157000	28.162000	6.000000	36.385040
71.000000	24.760882	349.467994	37.382554	41.441298	1.000000	387.828000	20.780000	388.018000	20.616000	13.157000	27.846000	8.000000	36.432607
72.000000	25.034764	333.050515	37.376073	41.476953	1.000000	387.868000	19.878000	388.058000	19.702000	13.157000	27.618000	9.500000	36.496026
73.000000	25.257110	263.032892	37.369591	41.512284	1.000000	388.254000	14.942000	388.452000	14.784000	13.157000	27.352000	9.500000	36.563501
74.000000	25.205899	90.616943	37.361813	41.557339	1.000000	388.386000	13.606000	388.604000	13.460000	13.157400	27.056000	8.000000	36.628266
75.000000	25.158578	95.116067	37.351442	41.617952	1.000000	388.364000	14.222000	388.536000	14.088000	13.159000	26.746000	6.500000	36.694380
76.000000	25.108663	97.884758	37.345933	41.651986	1.000000	388.210000	15.918000	388.394000	15.758000	13.159000	26.484000	6.500000	36.744639
77.000000	25.262296	337.960618	37.339451	41.679214	1.000000	387.636000	21.996000	387.844000	21.792000	13.158800	26.302000	6.500000	36.838387
78.000000	25.571831	371.747313	37.331349	41.715517	1.000000	387.550000	22.136000	387.790000	21.928000	13.158200	26.304000	9.500000	36.905842
79.000000	25.842472	265.628541	37.321951	41.762841	1.000000	388.096000	15.522000	388.322000	15.364000	13.159000	26.302000	10.500000	36.987787
80.000000	25.719630	-21.675954	37.315793	41.796551	1.000000	388.034000	17.162000	388.212000	16.998000	13.158800	26.394000	7.500000	37.055039
81.000000	25.963693	393.658915	37.308339	41.829289	1.000000	387.282000	25.166000	387.492000	24.944000	13.158200	26.404000	6.500000	37.139678
82.000000	26.376622	501.183673	37.304774	41.865592	1.000000	386.742000	30.506000	386.954000	30.258000	13.159000	26.362000	10.500000	37.208467
83.000000	27.063433	727.956904	37.296024	41.929123	1.000000	385.890000	39.446000	386.104000	39.114000	13.158800	26.296000	12.000000	37.300823
84.000000	27.917813	826.288769	37.290839	41.967046	1.000000	385.466000	43.304000	385.656000	42.930000	13.158200	26.278000	15.500000	37.364386
85.000000	28.891795	866.824169	37.284681	42.000108	1.000000	385.510000	41.476000	385.710000	41.136000	13.159000	26.102000	17.000000	37.464649
86.000000	29.723812	704.531167	37.279820	42.025715	1.000000	386.190000	32.368000	386.422000	32.082000	13.158800	26.032000	17.000000	37.553120
87.000000	30.048256	264.309086	37.271393	42.070122	1.000000	386.694000	27.014000	386.896000	26.782000	13.158200	25.870000	15.000000	37.637723
88.000000	30.337047	364.219931	37.265560	42.114528	1.000000	386.856000	24.872000	387.064000	24.644000	13.159000	25.824000	11.500000	37.723475
89.000000	30.530547	270.300709	37.260375	42.152776	1.000000	387.178000	21.270000	387.376000	21.094000	13.159000	25.844000	11.000000	37.800147
90.000000	30.532816	176.186818	37.253893	42.188431	1.000000	387.572000	17.204000	387.760000	17.056000	13.159200	25.970000	10.000000	37.914852
91.000000	30.342557	-79.418388	37.247735	42.247424	1.000000	388.112000	11.278000	388.296000	11.164000	13.159800	25.800000	8.500000	37.967761
92.000000	30.288105	148.802727	37.240605	42.312251	1.000000	387.682000	16.168000	387.882000	16.006000	13.159000	25.948000	6.000000	38.041712
93.000000	30.240459	141.859368	37.236716	42.358927	1.000000	387.556000	17.770000	387.760000	17.628000	13.159200	26.030000	8.000000	38.112955
94.000000	30.242728	167.210201	37.231855	42.402685	1.000000	387.074000	23.110000	387.292000	22.920000	13.160000	25.878000	8.000000	38.160447
95.000000	30.481281	319.423360	37.227318	42.442878	1.000000	387.606000	16.576000	387.816000	16.404000	13.159800	25.780000	10.500000	38.206783
96.000000	30.093309	-378.831584	37.221160	42.512243	1.000000	388.782000	3.984000	388.994000	3.884000	13.159200	25.834000	10.500000	38.266044
97.000000	29.629493	-110.137967	37.216299	42.552436	1.000000	388.256000	10.246000	388.476000	10.128000	13.160000	25.582000	1.500000	38.328204
98.000000	29.458357	169.784219	37.211438	42.590684	1.000000	387.504000	18.874000	387.714000	18.686000	13.159800	25.642000	4.500000	38.377039
99.000000	29.599674	265.433867	37.207873	42.633145	1.000000	387.200000	21.988000	387.382000	21.804000	13.159200	25.694000	9.000000	38.448260
100.000000	29.849894	340.275071	37.200743	42.698297	1.000000	386.806000	25.534000	387.036000	25.322000	13.159800	25.666000	10.000000	38.481264
101.000000	30.185683	426.364091	37.196530	42.744324	1.000000	386.506000	28.480000	386.732000	28.222000	13.159000	25.514000	10.500000	38.548622
102.000000	30.525361	428.656914	37.192641	42.780303	1.000000	386.666000	25.984000	386.876000	25.750000	13.159200	25.576000	11.500000	38.610568
103.000000	30.780768	298.679800	37.188752	42.815634	1.000000	387.428000	16.592000	387.636000	16.430000	13.160000	25.502000	12.000000	38.692389
104.000000	30.673484	71.041429	37.182594	42.861661	1.000000	387.808000	12.964000	388.006000	12.840000	13.160000	25.712000	10.000000	38.736001
105.000000	30.333482	-155.341795	37.177733	42.893427	1.000000	388.220000	9.038000	388.418000	8.926000	13.160000	25.572000	7.000000	38.776908
106.000000	29.996397	-22.302884	37.176437	42.925192	1.000000	387.456000	18.106000	387.676000	17.936000	13.159800	25.596000	4.000000	38.848104
107.000000	29.996397	144.519908	37.171900	42.946909	1.000000	387.128000	21.822000	387.316000	21.606000	13.159000	25.498000	7.500000	38.933763
108.000000	30.235598	379.080020	37.167038	42.980943	1.000000	386.560000	27.814000	386.778000	27.580000	13.159200	25.486000	9.500000	38.978717
109.000000	30.485170	363.917105	37.157964	43.031508	1.000000	386.644000	26.088000	386.854000	25.866000	13.159800	25.508000	11.000000	39.034082
110.000000	30.824848	445.593523	37.156668	43.064570	1.000000	386.272000	29.714000	386.482000	29.440000	13.159000	25.628000	11.000000	39.101407
111.000000	31.217358	484.095650	37.155371	43.100225	1.000000	385.998000	32.270000	386.208000	31.986000	13.159200	25.508000	12.500000	39.143653
112.000000	31.627370	482.278696	37.148890	43.145604	1.000000	385.988000	31.592000	386.198000	31.334000	13.159800	25.516000	13.000000	39.226787
113.000000	32.064609	497.982373	37.144352	43.200059	1.000000	386.424000	25.802000	386.632000	25.576000	13.159200	25.438000	13.000000	39.282140
114.000000	32.234123	193.382990	37.140463	43.234742	1.000000	388.474000	1.834000	388.676000	1.734000	13.159800	25.794000	13.000000	39.345397
115.000000	31.386225	-547.800060	37.136899	43.262941	1.000000	389.968000	-13.144000	390.176000	-13.090000	13.159000	26.894000	6.000000	39.424463
116.000000	29.657367	-1280.162524	37.134630	43.288872	1.000000	391.640000	-30.334000	391.842000	-30.146000	13.159200	26.742000	0.000000	39.482509
117.000000	26.808350	-2333.535221	37.128148	43.338141	1.000000	392.026000	-32.348000	392.230000	-32.160000	13.160000	26.668000	0.000000	39.531295
118.000000	23.168156	-2887.028665	37.125880	43.364720	1.000000	392.376000	-34.366000	392.554000	-34.142000	13.160000	26.514000	0.000000	39.603794
119.000000	19.311774	-2704.289096	37.124259	43.381575	1.000000	392.640000	-35.416000	392.818000	-35.186000	13.160000	26.492000	0.000000	39.668385
120.000000	15.576613	-2649.875820	37.122315	43.401347	1.000000	392.160000	-28.230000	392.368000	-28.052000	13.160000	26.210000	0.000000	39.748779
121.000000	12.290359	-2280.246119	37.119398	43.413989	1.000000	391.408000	-18.766000	391.606000	-18.648000	13.160000	26.276000	0.000000	39.796203
122.000000	8.928585	-2452.133207	37.116805	43.418851	1.000000	390.738000	-10.456000	390.930000	-10.400000	13.159200	26.678000	0.000000	39.877940
123.000000	5.899359	-2099.949546	37.115185	43.418851	1.000000	389.728000	1.146000	389.930000	1.128000	13.156200	28.952000	0.000000	39.946567
124.000000	2.555411	-2721.043284	37.112592	43.413989	1.000000	389.232000	5.758000	389.438000	5.660000	13.157000	28.264000	0.000000	40.057200
125.000000	0.472615	-1163.985883	37.111620	43.399078	1.000000	389.218000	5.584000	389.410000	5.464000	13.156200	29.284000	0.000000	40.115215
126.000000	-0.054404	-3.754397	37.113240	43.376389	1.000000	389.288000	4.440000	389.482000	4.358000	13.153400	31.456000	0.000000	40.215433
127.000000	-0.002221	-3.386886	37.113240	43.366017	1.000000	389.280000	4.430000	389.450000	4.338000	13.155000	30.562000	0.000000	40.274586
128.000000	-0.002545	-3.040994	37.115185	43.352727	1.000000	389.278000	4.388000	389.456000	4.290000	13.155200	30.632000	0.000000	40.322192
129.000000	-0.002869	-2.954521	37.117129	43.337168	1.000000	389.270000	4.340000	389.482000	4.252000	13.156400	29.304000	0.000000	40.344541
130.000000	-0.004166	-2.911284	37.118426	43.297300	1.000000	389.272000	4.184000	389.488000	4.102000	13.158000	28.170000	0.000000	40.385392
131.000000	-0.004166	-2.954521	37.122315	43.278176	1.000000	389.280000	4.208000	389.476000	4.114000	13.157800	28.434000	0.000000	40.415640
132.000000	-0.004166	-2.759956	37.125231	43.258403	1.000000	389.278000	4.242000	389.462000	4.138000	13.157000	28.592000	0.000000	40.432789
133.000000	-0.003842	-2.824811	37.130417	43.241872	1.000000	389.272000	4.230000	389.474000	4.146000	13.157000	28.178000	0.000000	40.476337
134.000000	-0.002869	-2.781574	37.135602	43.216914	1.000000	389.278000	4.174000	389.488000	4.076000	13.157000	28.194000	0.000000	40.477688
135.000000	-0.004166	-2.781574	37.140463	43.197142	1.000000	389.270000	4.258000	389.482000	4.166000	13.157200	28.532000	0.000000	40.502736
136.000000	-0.004166	-2.738338	37.142732	43.180611	1.000000	389.270000	4.210000	389.490000	4.112000	13.157800	28.364000	0.000000	40.531836
137.000000	-0.004166	-2.759956	37.148566	43.164728	1.000000	389.274000	4.210000	389.486000	4.118000	13.157000	28.816000	0.000000	40.541085
138.000000	-0.003842	-2.738338	37.153427	43.134584	1.000000	389.292000	4.200000	389.474000	4.100000	13.157000	28.306000	0.000000	40.575381
139.000000	-0.004490	-2.738338	37.160233	43.108004	1.000000	389.300000	4.160000	389.494000	4.060000	13.157200	28.196000	0.000000	40.605623
140.000000	-0.004166	-2.738338	37.164446	43.083370	1.000000	389.296000	4.174000	389.510000	4.076000	13.157800	28.050000	0.000000	40.635865
141.000000	-0.004166	-2.738338	37.170603	43.060356	1.000000	389.278000	4.214000	389.504000	4.128000	13.157000	28.368000	0.000000	40.663611
142.000000	-0.004166	-2.738338	37.175789	43.032481	1.000000	389.278000	4.154000	389.482000	4.076000	13.157200	28.452000	0.000000	40.658415
143.000000	-0.004166	-2.716720	37.187780	42.987426	1.000000	389.308000	4.166000	389.492000	4.058000	13.157800	28.178000	0.000000	40.722947
144.000000	-0.004166	-2.738338	37.192317	42.958902	1.000000	389.302000	4.150000	389.502000	4.052000	13.157200	28.200000	0.000000	40.724298
145.000000	-0.004814	-2.738338	37.198475	42.932323	1.000000	389.304000	4.164000	389.506000	4.068000	13.157800	28.342000	0.000000	40.759939
146.000000	-0.004166	-2.759956	37.202688	42.901854	1.000000	389.284000	4.218000	389.494000	4.102000	13.157000	28.470000	0.000000	40.759939
147.000000	-0.004166	-2.759956	37.213058	42.859068	1.000000	389.302000	4.196000	389.510000	4.096000	13.157000	28.554000	0.000000	40.804620
148.000000	-0.004166	-2.738338	37.220188	42.825034	1.000000	389.314000	4.152000	389.512000	4.054000	13.157200	28.230000	0.000000	40.828519
149.000000	-0.004166	-2.738338	37.227318	42.805586	1.000000	389.326000	4.196000	389.518000	4.108000	13.158000	28.244000	0.000000	40.858754
150.000000	-0.004490	-2.738338	37.229263	42.786138	1.000000	389.312000	4.182000	389.512000	4.096000	13.158000	28.592000	0.000000	40.860105
151.000000	-0.004166	-2.738338	37.242226	42.765717	1.000000	389.324000	4.200000	389.528000	4.094000	13.158200	28.410000	0.000000	40.903639
152.000000	-0.003193	-2.738338	37.247411	42.748538	1.000000	389.334000	4.222000	389.550000	4.134000	13.158800	28.080000	0.000000	40.912887
153.000000	-0.003842	-2.738338	37.253893	42.735248	1.000000	389.316000	4.162000	389.516000	4.076000	13.158000	27.948000	0.000000	40.927328
154.000000	-0.004166	-2.738338	37.258106	42.722607	1.000000	389.338000	4.210000	389.546000	4.102000	13.158000	28.222000	0.000000	40.928889
155.000000	-0.004166	-2.738338	37.266208	42.706400	1.000000	389.326000	4.204000	389.568000	4.108000	13.158000	28.286000	0.000000	40.967017
156.000000	-0.004166	-2.738338	37.273986	42.689221	1.000000	389.316000	4.172000	389.560000	4.088000	13.157800	28.484000	0.000000	40.981458
157.000000	-0.004166	-2.695101	37.280144	42.680145	1.000000	389.338000	4.158000	389.560000	4.058000	13.157200	28.344000	0.000000	41.002653
158.000000	-0.004166	-2.738338	37.286301	42.674959	1.000000	389.326000	4.222000	389.556000	4.122000	13.158000	28.168000	0.000000	41.039428
159.000000	-0.004490	-2.738338	37.293431	42.669449	1.000000	389.314000	4.180000	389.544000	4.084000	13.158000	28.024000	0.000000	41.021146
160.000000	-0.005138	-2.738338	37.302506	42.660373	1.000000	389.332000	4.154000	389.560000	4.074000	13.158000	28.026000	0.000000	41.077764
161.000000	-0.004166	-2.716720	37.307043	42.653566	1.000000	389.340000	4.210000	389.560000	4.128000	13.158000	28.284000	0.000000	41.073922
162.000000	-0.004166	-2.738338	37.313200	42.647732	1.000000	389.304000	4.678000	389.516000	4.594000	13.158400	28.056000	0.000000	41.098958
163.000000	0.312824	458.074272	37.319034	42.638656	1.000000	388.934000	9.018000	389.126000	8.940000	13.159800	27.224000	0.000000	41.129186
164.000000	2.758310	2470.137395	37.330053	42.623097	1.000000	387.858000	20.780000	388.088000	20.608000	13.159000	27.168000	0.000000	41.133240
165.000000	5.784620	2285.261780	37.334914	42.620828	1.000000	386.774000	32.512000	386.972000	32.220000	13.158800	27.188000	15.000000	41.150380
166.000000	9.391753	3047.887706	37.342044	42.620180	1.000000	385.054000	50.330000	385.278000	49.896000	13.158200	26.976000	19.000000	41.176766
167.000000	12.984625	2704.914608	37.347229	42.624070	1.000000	384.354000	56.186000	384.560000	55.692000	13.159200	26.110000	27.000000	41.247813
168.000000	16.089696	2370.702122	37.353063	42.639628	1.000000	383.600000	62.504000	383.834000	61.986000	13.160200	25.236000	27.000000	41.289984
169.000000	19.011639	2249.463362	37.360841	42.665235	1.000000	382.972000	67.298000	383.214000	66.738000	13.160800	25.166000	27.000000	41.384703
170.000000	21.678175	2121.302886	37.364730	42.688897	1.000000	382.552000	70.204000	382.772000	69.618000	13.160000	25.450000	28.000000	41.451898
171.000000	24.094815	1906.663900	37.370887	42.714179	1.000000	383.076000	61.660000	383.342000	61.170000	13.160000	25.516000	29.000000	41.554496
172.000000	25.758849	1011.812864	37.376721	42.757614	1.000000	385.444000	33.244000	385.716000	32.956000	13.160200	25.488000	28.000000	41.634762
173.000000	26.276144	385.179795	37.377693	42.811096	1.000000	387.568000	9.648000	387.768000	9.542000	13.161000	25.582000	16.500000	41.691351
174.000000	26.007449	-123.195410	37.377693	42.856799	1.000000	388.714000	-1.742000	388.918000	-1.790000	13.161000	25.500000	8.500000	41.742748
175.000000	25.257110	-439.146586	37.380286	42.907040	1.000000	388.886000	-1.816000	389.104000	-1.870000	13.161000	25.474000	0.500000	41.783551
176.000000	24.524599	-409.810580	37.378989	42.957281	1.000000	388.092000	8.732000	388.304000	8.604000	13.161000	25.472000	0.000000	41.823001
177.000000	24.422177	241.553900	37.381582	43.045770	1.000000	386.884000	22.488000	387.100000	22.288000	13.161000	25.304000	2.500000	41.827054
178.000000	24.787784	406.204551	37.378341	43.095363	1.000000	386.776000	22.680000	386.978000	22.474000	13.161000	25.452000	8.500000	41.828405
179.000000	25.151771	410.379220	37.376721	43.142363	1.000000	386.444000	26.054000	386.656000	25.810000	13.161000	25.050000	10.000000	41.821866
180.000000	25.614615	528.156794	37.374452	43.183204	1.000000	385.736000	33.528000	385.950000	33.228000	13.161000	25.128000	11.000000	41.807437
181.000000	26.882573	1359.694987	37.368295	43.243493	1.000000	386.102000	27.208000	386.298000	26.962000	13.161000	25.180000	12.500000	41.829756
182.000000	26.503029	-431.601806	37.363433	43.293410	1.000000	389.034000	-4.692000	389.250000	-4.710000	13.161200	25.902000	19.000000	41.824568
183.000000	24.461719	-1879.205184	37.359220	43.330686	1.000000	389.490000	-6.670000	389.698000	-6.644000	13.161400	25.606000	0.000000	41.803600
184.000000	23.595670	-450.733984	37.353063	43.370230	1.000000	389.784000	-10.302000	390.010000	-10.258000	13.159400	26.762000	0.000000	41.829973
185.000000	21.553065	-1747.787616	37.344312	43.425982	1.000000	391.746000	-31.198000	391.914000	-31.004000	13.161200	25.996000	0.000000	41.839214
186.000000	19.334138	-2129.869264	37.334914	43.460664	1.000000	391.476000	-26.656000	391.642000	-26.480000	13.162000	25.768000	0.000000	41.885201
187.000000	17.842861	-314.927947	37.330701	43.480112	1.000000	387.784000	16.924000	387.978000	16.780000	13.161800	25.124000	0.000000	41.907736
188.000000	18.346868	733.862007	37.325191	43.498264	1.000000	386.554000	29.458000	386.768000	29.208000	13.161000	25.284000	6.000000	41.939294
189.000000	19.419382	943.201173	37.318710	43.516740	1.000000	385.710000	37.100000	385.934000	36.784000	13.160800	25.328000	12.500000	41.993166
190.000000	20.853938	1321.711953	37.312552	43.548181	1.000000	384.040000	54.732000	384.250000	54.286000	13.160000	25.702000	14.500000	42.053791
191.000000	22.975952	1834.115379	37.306070	43.564388	1.000000	382.746000	67.034000	382.986000	66.486000	13.160000	25.472000	20.000000	42.088047
192.000000	25.123573	1718.738591	37.301857	43.587401	1.000000	382.202000	71.046000	382.414000	70.476000	13.160000	25.474000	27.000000	42.160391
193.000000	27.349955	1909.129771	37.299589	43.616898	1.000000	380.668000	86.266000	380.930000	85.552000	13.159800	25.452000	27.000000	42.194643
194.000000	29.864156	2053.123688	37.291811	43.666166	1.000000	379.488000	96.888000	379.756000	96.056000	13.159200	25.446000	32.000000	42.290641
195.000000	32.495040	2184.031216	37.289218	43.700525	1.000000	378.184000	109.000000	378.440000	108.076000	13.160000	25.410000	35.500000	42.369508
196.000000	35.153476	2174.621966	37.285329	43.725483	1.000000	377.774000	110.444000	378.020000	109.516000	13.159800	25.486000	39.500000	42.443185
197.000000	37.499459	1862.234959	37.283060	43.749469	1.000000	378.510000	98.680000	378.778000	97.828000	13.159200	25.456000	40.500000	42.541865
198.000000	39.457471	1559.322255	37.276903	43.800683	1.000000	379.718000	82.638000	379.968000	81.936000	13.160000	25.422000	35.000000	42.581291
199.000000	40.758815	1042.549691	37.272366	43.845738	1.000000	380.986000	67.828000	381.196000	67.244000	13.160000	25.528000	31.000000	42.662840
200.000000	41.951255	1332.743472	37.267504	43.883337	1.000000	379.490000	84.822000	379.714000	84.106000	13.160000	25.490000	23.000000	42.736500
201.000000	43.318719	1268.565992	37.263940	43.921261	1.000000	379.310000	84.984000	379.584000	84.286000	13.159800	25.202000	29.000000	42.796868
202.000000	44.615526	1242.090349	37.254217	43.983171	1.000000	379.460000	81.838000	379.704000	81.166000	13.159200	25.726000	29.000000	42.821870
203.000000	45.884134	1205.794495	37.247735	44.041840	1.000000	380.378000	69.524000	380.598000	68.922000	13.160000	25.406000	29.000000	42.856104
204.000000	46.757316	913.567500	37.240605	44.077819	1.000000	381.072000	61.878000	381.288000	61.332000	13.160000	25.518000	28.000000	42.898221
205.000000	47.278502	355.481247	37.236716	44.107315	1.000000	383.808000	29.746000	384.010000	29.454000	13.160200	25.640000	24.500000	42.913987
206.000000	47.279150	347.845713	37.228290	44.138756	1.000000	383.640000	33.296000	383.858000	33.006000	13.161000	25.350000	14.000000	42.946869
207.000000	47.330361	259.593658	37.216623	44.168577	1.000000	384.176000	27.266000	384.422000	27.024000	13.161000	25.350000	15.500000	42.968037
208.000000	47.233125	206.166558	37.208845	44.185432	1.000000	384.330000	26.394000	384.558000	26.168000	13.160800	25.500000	13.500000	42.979749
209.000000	47.209788	278.541893	37.203660	44.194832	1.000000	384.084000	29.796000	384.304000	29.508000	13.160200	25.462000	12.500000	42.985153
210.000000	47.183858	252.758450	37.196530	44.200342	1.000000	384.234000	28.146000	384.456000	27.866000	13.161000	25.458000	14.000000	42.973441
211.000000	47.135564	252.260951	37.186483	44.199370	1.000000	384.294000	27.600000	384.518000	27.324000	13.161000	25.390000	13.000000	43.010150
212.000000	47.131027	250.984757	37.180650	44.193211	1.000000	384.314000	27.740000	384.518000	27.482000	13.160800	25.338000	13.500000	43.027266
213.000000	47.085974	252.131168	37.176437	44.184784	1.000000	384.232000	28.400000	384.454000	28.140000	13.160200	25.416000	13.500000	43.018256
214.000000	47.038652	277.157547	37.170603	44.170846	1.000000	383.752000	34.222000	383.984000	33.912000	13.160800	25.324000	13.500000	43.028840
215.000000	47.229559	429.132783	37.163798	44.142322	1.000000	383.002000	42.468000	383.240000	42.086000	13.160000	25.456000	14.000000	43.043254
216.000000	47.645731	777.901530	37.162501	44.119956	1.000000	381.560000	58.236000	381.796000	57.744000	13.160000	25.316000	16.000000	43.053838
217.000000	48.182799	601.224319	37.157640	44.103750	1.000000	382.054000	50.842000	382.310000	50.412000	13.160200	25.444000	22.000000	43.074781
218.000000	48.645643	658.090671	37.154723	44.089164	1.000000	381.600000	55.788000	381.838000	55.306000	13.161000	25.356000	19.500000	43.115541
219.000000	49.158402	682.143689	37.152455	44.062584	1.000000	381.454000	56.670000	381.686000	56.148000	13.161000	25.280000	20.500000	43.128826
220.000000	49.644259	673.167068	37.150510	44.037626	1.000000	381.350000	56.630000	381.584000	56.134000	13.161800	24.386000	21.000000	43.155173
221.000000	50.145026	665.185446	37.152455	44.015909	1.000000	381.240000	57.456000	381.454000	56.932000	13.165200	20.426000	21.000000	43.210340
222.000000	50.637366	716.752350	37.155371	43.993543	1.000000	380.748000	62.398000	380.980000	61.860000	13.166000	20.218000	21.000000	43.232857
223.000000	51.213328	735.246354	37.158288	43.973123	1.000000	380.350000	65.808000	380.592000	65.262000	13.165800	20.416000	22.500000	43.255148
224.000000	51.851523	866.910691	37.163149	43.932930	1.000000	379.444000	75.018000	379.694000	74.398000	13.165200	20.410000	22.500000	43.288021
225.000000	52.688079	996.001026	37.166390	43.906999	1.000000	378.742000	81.312000	378.992000	80.638000	13.165800	20.346000	26.000000	43.317067
226.000000	53.559964	1008.460148	37.172548	43.888848	1.000000	378.644000	81.088000	378.896000	80.396000	13.165200	20.528000	28.000000	43.352414
227.000000	54.319704	811.796391	37.179678	43.865834	1.000000	380.494000	58.436000	380.742000	57.934000	13.166000	20.376000	28.500000	43.374930
228.000000	54.614006	422.146161	37.193613	43.828882	1.000000	381.832000	43.018000	382.042000	42.656000	13.166000	20.478000	23.000000	43.397218
229.000000	54.713187	434.972993	37.202688	43.803924	1.000000	381.824000	43.590000	382.072000	43.210000	13.166000	20.612000	18.000000	43.423559
230.000000	54.769908	361.364717	37.211762	43.782855	1.000000	383.036000	28.992000	383.278000	28.722000	13.166000	20.502000	18.500000	43.456428
231.000000	54.620812	251.849973	37.221809	43.754655	1.000000	382.844000	32.476000	383.096000	32.150000	13.166000	20.388000	14.500000	43.494473
232.000000	54.665865	401.683796	37.242550	43.716083	1.000000	382.002000	42.232000	382.254000	41.836000	13.166000	20.560000	15.000000	43.498527
233.000000	54.738468	434.021255	37.254217	43.684966	1.000000	381.326000	49.952000	381.550000	49.524000	13.166000	20.606000	17.500000	43.506405
234.000000	55.013323	574.316088	37.269125	43.654173	1.000000	380.742000	55.982000	380.982000	55.506000	13.165800	20.472000	19.500000	43.527569
235.000000	55.304383	593.372480	37.280144	43.627270	1.000000	380.420000	59.068000	380.660000	58.544000	13.165000	20.484000	21.000000	43.551435
236.000000	55.637256	612.753328	37.297968	43.588374	1.000000	380.584000	55.626000	380.822000	55.166000	13.165200	20.482000	21.500000	43.584071
237.000000	55.938688	600.272581	37.320654	43.542995	1.000000	380.834000	51.902000	381.066000	51.452000	13.166200	20.418000	21.500000	43.539501
238.000000	56.225211	556.817087	37.333294	43.511229	1.000000	381.052000	49.440000	381.292000	49.016000	13.166800	20.438000	21.500000	43.573719
239.000000	56.371714	485.415105	37.349822	43.485947	1.000000	380.826000	52.330000	381.070000	51.858000	13.166000	20.388000	21.000000	43.581598
240.000000	56.517569	498.825959	37.366674	43.446402	1.000000	381.130000	48.314000	381.384000	47.870000	13.166000	20.396000	19.500000	43.592179
241.000000	56.664071	437.655164	37.389036	43.390327	1.000000	381.254000	47.082000	381.478000	46.656000	13.166000	20.474000	19.500000	43.590828
242.000000	56.665044	351.457991	37.405564	43.345272	1.000000	382.424000	32.544000	382.630000	32.252000	13.166000	20.546000	18.500000	43.611990
243.000000	56.546415	284.857971	37.422741	43.307996	1.000000	382.468000	32.698000	382.692000	32.392000	13.166000	20.572000	16.500000	43.634274
244.000000	56.377872	235.648800	37.437001	43.273314	1.000000	382.188000	36.664000	382.388000	36.338000	13.166000	20.444000	16.000000	43.655436
245.000000	56.228129	236.211190	37.465844	43.200707	1.000000	382.458000	33.912000	382.670000	33.600000	13.166000	20.508000	17.000000	43.651613
246.000000	56.130892	293.099156	37.484317	43.155977	1.000000	382.182000	36.770000	382.432000	36.444000	13.166000	20.362000	15.500000	43.664666
247.000000	56.033656	300.518385	37.500845	43.116756	1.000000	382.338000	34.870000	382.558000	34.520000	13.166000	20.358000	17.000000	43.683125
248.000000	55.937716	306.877724	37.516725	43.072998	1.000000	382.086000	37.950000	382.344000	37.598000	13.166000	20.590000	16.000000	43.700232
249.000000	55.885208	308.629787	37.542328	43.010764	1.000000	382.046000	38.600000	382.290000	38.252000	13.166000	20.426000	16.000000	43.705406
250.000000	55.747133	259.809962	37.566634	42.946261	1.000000	382.780000	29.410000	383.008000	29.128000	13.166000	20.462000	16.000000	43.724098
251.000000	55.551364	153.366743	37.582514	42.895047	1.000000	383.666000	19.334000	383.920000	19.136000	13.166200	20.608000	15.000000	43.738501
252.000000	55.160798	54.321128	37.596450	42.841889	1.000000	384.178000	14.190000	384.404000	14.040000	13.166800	20.408000	13.000000	43.772714
253.000000	54.693415	-1.787133	37.616543	42.776413	1.000000	384.208000	14.812000	384.416000	14.656000	13.166000	20.566000	10.500000	43.772714
254.000000	54.230246	-1.354768	37.634692	42.708345	1.000000	384.224000	15.204000	384.424000	15.024000	13.166200	20.466000	10.500000	43.814804
255.000000	53.793655	11.211736	37.649600	42.653890	1.000000	384.222000	15.746000	384.420000	15.560000	13.166800	20.578000	10.500000	43.846311
256.000000	53.425778	104.849748	37.661267	42.602353	1.000000	383.764000	21.482000	383.964000	21.268000	13.166200	20.418000	10.500000	43.858244
257.000000	53.110084	105.585182	37.673258	42.549194	1.000000	383.198000	28.032000	383.436000	27.772000	13.166800	20.308000	12.000000	43.872645
258.000000	53.008958	345.639412	37.688490	42.461029	1.000000	381.818000	43.908000	382.050000	43.516000	13.166000	20.352000	12.500000	43.898979
259.000000	53.196624	518.488001	37.698861	42.408519	1.000000	381.238000	49.120000	381.482000	48.690000	13.166200	20.252000	17.000000	43.897627
260.000000	53.446198	522.230061	37.703722	42.362492	1.000000	381.922000	39.784000	382.176000	39.418000	13.167000	20.296000	19.500000	43.939712
261.000000	53.402117	247.459001	37.714093	42.313223	1.000000	382.970000	27.836000	383.204000	27.576000	13.166800	20.334000	19.500000	43.952996
262.000000	53.228388	200.391241	37.719926	42.234458	1.000000	383.192000	25.188000	383.430000	24.968000	13.166200	20.516000	14.000000	43.967396
263.000000	53.014468	154.253589	37.723491	42.174817	1.000000	383.406000	23.460000	383.602000	23.230000	13.167000	20.376000	13.500000	44.023879
264.000000	52.787260	158.882495	37.723167	42.128790	1.000000	383.300000	25.046000	383.518000	24.786000	13.167000	20.354000	13.000000	44.022763
265.000000	52.545141	144.865994	37.725436	42.086004	1.000000	383.466000	23.140000	383.686000	22.924000	13.166800	20.368000	13.000000	44.031991
266.000000	52.281631	109.868002	37.728028	42.020205	1.000000	383.606000	21.422000	383.872000	21.214000	13.166200	20.490000	12.500000	44.063257
267.000000	52.028817	133.185576	37.727704	41.968343	1.000000	383.430000	23.738000	383.708000	23.504000	13.167000	20.374000	12.000000	44.083300
268.000000	51.788643	151.246963	37.727380	41.925233	1.000000	383.368000	24.766000	383.598000	24.548000	13.167000	20.380000	12.500000	44.113449
269.000000	51.592226	207.659056	37.728028	41.886661	1.000000	383.098000	27.998000	383.326000	27.742000	13.166800	20.350000	12.500000	44.133255
270.000000	51.443778	210.103292	37.729000	41.839985	1.000000	383.030000	28.538000	383.250000	28.262000	13.166200	20.366000	13.500000	44.149005
271.000000	51.342653	222.432623	37.726408	41.776779	1.000000	382.906000	29.682000	383.134000	29.404000	13.167000	20.244000	13.500000	44.189731
272.000000	51.346218	411.374218	37.727380	41.736910	1.000000	381.986000	39.994000	382.246000	39.638000	13.166800	20.164000	13.500000	44.192198
273.000000	51.492072	473.648163	37.723167	41.700931	1.000000	381.346000	46.730000	381.606000	46.328000	13.166000	20.270000	17.000000	44.213593
274.000000	51.760445	557.163173	37.721871	41.661062	1.000000	380.350000	57.580000	380.604000	57.080000	13.166000	20.298000	18.000000	44.220115
275.000000	52.249219	702.627690	37.719926	41.605959	1.000000	379.832000	62.508000	380.060000	61.962000	13.166000	20.256000	21.000000	44.270065
276.000000	52.739290	719.802238	37.718306	41.563173	1.000000	379.274000	68.084000	379.494000	67.504000	13.166000	20.290000	22.500000	44.283109
277.000000	53.322383	773.359143	37.716361	41.519091	1.000000	378.774000	72.598000	379.004000	71.962000	13.166000	20.340000	22.500000	44.302914
278.000000	54.002713	900.048489	37.713768	41.473064	1.000000	378.152000	78.332000	378.420000	77.644000	13.166000	20.398000	24.000000	44.350157
279.000000	54.731013	900.502728	37.709231	41.394623	1.000000	378.258000	75.156000	378.518000	74.526000	13.166000	20.428000	27.000000	44.377834
280.000000	55.396758	863.449824	37.706315	41.341464	1.000000	378.864000	66.868000	379.124000	66.296000	13.166000	20.262000	27.000000	44.410679
281.000000	55.694301	531.033638	37.700157	41.297382	1.000000	379.866000	55.896000	380.120000	55.408000	13.166000	20.306000	25.000000	44.454101
282.000000	55.938040	537.717435	37.699509	41.255244	1.000000	380.788000	44.500000	381.024000	44.090000	13.166000	20.450000	20.500000	44.493466
283.000000	55.886181	262.448871	37.691083	41.196900	1.000000	382.726000	22.270000	382.978000	22.040000	13.166200	20.454000	20.000000	44.507859
284.000000	55.527703	20.015310	37.686545	41.132073	1.000000	385.032000	-3.912000	385.256000	-3.904000	13.167000	20.482000	15.000000	44.560502
285.000000	54.741061	-235.026781	37.683629	41.084101	1.000000	385.190000	-3.256000	385.424000	-3.242000	13.167000	20.500000	6.000000	44.602327
286.000000	53.925248	-276.231225	37.681036	41.035156	1.000000	386.554000	-17.278000	386.768000	-17.204000	13.167000	20.384000	6.000000	44.610199
287.000000	52.772026	-581.092211	37.677795	40.971950	1.000000	386.544000	-14.756000	386.778000	-14.706000	13.167000	20.374000	3.500000	44.637871
288.000000	51.597088	-560.014388	37.675527	40.911660	1.000000	384.148000	15.394000	384.398000	15.246000	13.167000	20.292000	0.000000	44.641927
289.000000	51.401643	203.743953	37.675527	40.863364	1.000000	383.072000	26.692000	383.310000	26.428000	13.167000	20.378000	8.000000	44.663080
290.000000	51.252223	65.352633	37.673906	40.823495	1.000000	384.740000	6.390000	384.936000	6.272000	13.167000	20.372000	13.500000	44.663080
291.000000	50.667509	-126.697571	37.672610	40.780385	1.000000	384.622000	9.020000	384.840000	8.894000	13.167000	20.356000	8.000000	44.699975
292.000000	49.920410	-20.097819	37.675527	40.703889	1.000000	383.696000	20.826000	383.910000	20.624000	13.167000	20.256000	7.500000	44.707847
293.000000	49.729179	170.714326	37.675527	40.653972	1.000000	382.900000	29.550000	383.128000	29.276000	13.167000	20.232000	10.500000	44.731461
294.000000	49.718807	355.351464	37.677147	40.607297	1.000000	381.986000	39.440000	382.204000	39.084000	13.167000	20.212000	12.500000	44.770816
295.000000	49.866930	417.625406	37.679416	40.561918	1.000000	382.666000	29.860000	382.876000	29.584000	13.167000	20.296000	17.000000	44.751260
296.000000	49.773259	210.449379	37.675527	40.494174	1.000000	383.332000	21.896000	383.546000	21.706000	13.167000	20.396000	15.000000	44.789263
297.000000	49.602448	185.314849	37.676499	40.437450	1.000000	383.052000	25.306000	383.280000	25.066000	13.167000	20.224000	12.000000	44.793320
298.000000	49.482523	201.407870	37.676499	40.397581	1.000000	382.594000	31.130000	382.816000	30.858000	13.167000	20.240000	12.500000	44.807709
299.000000	49.430988	260.437244	37.678443	40.366140	1.000000	383.168000	23.658000	383.396000	23.444000	13.167000	20.228000	14.000000	44.836731
300.000000	49.068297	-103.630864	37.675527	40.306175	1.000000	384.604000	7.380000	384.824000	7.274000	13.167000	20.186000	13.500000	44.880141
301.000000	48.556834	-90.551803	37.672610	40.251396	1.000000	384.632000	8.092000	384.850000	7.998000	13.167000	20.220000	7.500000	44.893177
302.000000	48.067088	-80.131791	37.670017	40.209258	1.000000	385.146000	2.908000	385.354000	2.838000	13.167200	20.298000	7.500000	44.927362
303.000000	47.321610	-475.767952	37.666776	40.179114	1.000000	387.022000	-18.080000	387.230000	-17.992000	13.167800	20.426000	7.500000	44.961547
304.000000	46.239371	-556.858119	37.664508	40.151562	1.000000	387.110000	-17.098000	387.336000	-17.020000	13.167200	20.326000	0.000000	44.987861
305.000000	45.148380	-546.956947	37.655433	40.102293	1.000000	387.234000	-16.680000	387.410000	-16.616000	13.166400	21.736000	0.000000	45.000895
306.000000	44.094340	-546.502963	37.651544	40.085438	1.000000	387.118000	-14.206000	387.314000	-14.164000	13.160000	27.298000	0.000000	45.017987
307.000000	43.028307	-541.249722	37.647331	40.063397	1.000000	387.218000	-14.398000	387.404000	-14.342000	13.160400	26.566000	0.000000	45.031266
308.000000	42.003114	-535.153367	37.642146	40.042977	1.000000	387.280000	-14.340000	387.488000	-14.252000	13.161800	26.100000	0.000000	45.049710
309.000000	41.022001	-528.559791	37.636636	40.003432	1.000000	387.922000	-21.356000	388.126000	-21.226000	13.161200	26.714000	0.000000	45.098277
310.000000	39.732001	-804.754929	37.630155	39.976529	1.000000	389.220000	-35.494000	389.430000	-35.278000	13.162000	26.142000	0.000000	45.100983
311.000000	37.512424	-1644.171172	37.629507	39.965184	1.000000	390.728000	-50.322000	390.902000	-49.972000	13.161800	26.158000	0.000000	45.136269
312.000000	35.725548	-988.834578	37.622053	39.953515	1.000000	388.932000	-27.800000	389.130000	-27.646000	13.161000	26.028000	0.000000	45.173154
313.000000	34.115966	-1052.240993	37.616219	39.937957	1.000000	388.852000	-26.044000	389.074000	-25.882000	13.161200	26.022000	0.000000	45.208686
314.000000	32.669417	-831.302176	37.607145	39.933743	1.000000	388.330000	-19.002000	388.530000	-18.874000	13.162000	26.044000	0.000000	45.234995
315.000000	31.302278	-908.955035	37.602932	39.933095	1.000000	388.004000	-14.632000	388.236000	-14.668000	13.162000	25.906000	0.000000	45.257247
316.000000	30.277085	-467.207113	37.596774	39.933743	1.000000	386.696000	1.490000	386.896000	0.944000	13.162000	25.124000	0.000000	45.299292
317.000000	29.995424	-62.275090	37.590292	39.939901	1.000000	386.250000	4.966000	386.454000	4.894000	13.162000	25.120000	0.000000	45.363585
318.000000	29.339405	-452.225645	37.581542	39.948005	1.000000	387.100000	-5.002000	387.320000	-5.002000	13.162000	25.296000	5.000000	45.382025
319.000000	28.516464	-466.147818	37.577653	39.952867	1.000000	387.394000	-8.162000	387.616000	-8.142000	13.162000	25.810000	0.000000	45.395054
320.000000	27.536324	-704.597441	37.572792	39.960646	1.000000	388.974000	-26.370000	389.190000	-26.220000	13.162000	26.336000	0.000000	45.462047
321.000000	25.302487	-1760.239749	37.565662	39.971343	1.000000	390.986000	-47.276000	391.162000	-46.948000	13.162000	26.316000	0.000000	45.467458
322.000000	22.129675	-2212.083634	37.559828	39.991115	1.000000	389.452000	-26.896000	389.678000	-26.878000	13.162000	25.976000	0.000000	45.514657
323.000000	20.603717	-650.076140	37.557560	40.005053	1.000000	387.224000	-0.334000	387.398000	-1.032000	13.162000	25.362000	0.000000	45.588158
324.000000	19.698449	-389.381305	37.555291	40.007322	1.000000	387.460000	-4.192000	387.652000	-4.188000	13.162000	25.656000	0.000000	45.630193
325.000000	18.487212	-1124.986505	37.553023	40.015101	1.000000	388.310000	-13.850000	388.512000	-13.790000	13.162000	26.166000	0.000000	45.711553
326.000000	16.877307	-1088.602940	37.549134	40.023529	1.000000	388.200909	-12.164545	388.403636	-12.110000	13.161818	26.313636	0.000000	45.771768
327.000000	15.305649	-1088.321902	37.547189	40.027742	1.000000	388.212222	-11.812222	388.387778	-11.783333	13.161000	26.812222	0.000000	45.829526
328.000000	13.018333	-1712.960557	37.545893	40.028066	1.000000	387.968000	-8.418000	388.180000	-8.390000	13.161000	26.368000	0.000000	45.870200
329.000000	11.201316	-1415.838861	37.548485	40.027418	1.000000	388.214000	-11.134000	388.398000	-11.078000	13.161000	26.416000	0.000000	45.876963
330.000000	8.446943	-2140.851356	37.551726	40.025149	1.000000	388.040000	-8.644000	388.246000	-8.622000	13.160200	27.082000	0.000000	45.935818
331.000000	5.520786	-2144.267047	37.551078	40.018666	1.000000	387.044000	2.826000	387.268000	2.768000	13.157000	30.080000	0.000000	45.955603
332.000000	2.349595	-2372.275210	37.553023	40.017046	1.000000	386.744000	5.934000	386.940000	5.842000	13.157200	29.682000	0.000000	45.993569
333.000000	-0.046626	-990.304623	37.552699	40.014453	1.000000	386.766000	5.296000	386.952000	5.194000	13.158000	28.942000	0.000000	46.039649
334.000000	-0.004490	-3.603069	37.556588	40.019963	1.000000	386.786000	4.578000	386.990000	4.476000	13.157800	29.202000	0.000000	46.076259
335.000000	-0.001573	-3.213940	37.561449	40.022880	1.000000	386.770000	4.500000	386.956000	4.424000	13.157000	29.434000	0.000000	46.082769
336.000000	-0.002869	-2.976139	37.563717	40.023853	1.000000	386.772000	4.516000	386.982000	4.418000	13.157000	29.620000	0.000000	46.120984
337.000000	-0.003193	-3.040994	37.566310	40.026122	1.000000	386.782000	4.418000	386.992000	4.326000	13.157000	29.912000	0.000000	46.105258
338.000000	-0.003193	-2.911284	37.568579	40.024501	1.000000	386.790000	4.406000	386.998000	4.310000	13.157400	29.332000	0.000000	46.132905
339.000000	-0.004166	-2.868048	37.577005	40.018991	1.000000	386.800000	4.382000	386.992000	4.302000	13.159000	28.182000	0.000000	46.132904
340.000000	-0.001897	-2.781574	37.581542	40.016398	1.000000	386.834000	4.342000	386.994000	4.260000	13.159000	28.486000	0.000000	46.125042
341.000000	-0.004166	-2.759956	37.587376	40.010887	1.000000	386.804000	4.328000	386.972000	4.238000	13.158800	28.354000	0.000000	46.134257
342.000000	-0.003518	-2.824811	37.591913	40.004080	1.000000	386.782000	4.390000	386.982000	4.296000	13.158200	28.160000	0.000000	46.127747
343.000000	-0.004166	-2.738338	37.602283	39.995653	1.000000	386.786000	4.348000	386.988000	4.240000	13.159000	28.010000	0.000000	46.131806
344.000000	-0.004166	-2.759956	37.609737	39.985929	1.000000	386.778000	4.334000	386.984000	4.238000	13.159000	28.214000	0.000000	46.142374
345.000000	-0.004166	-2.781574	37.612006	39.978150	1.000000	386.806000	4.362000	387.000000	4.280000	13.159800	27.426000	0.000000	46.172471
346.000000	-0.004166	-2.738338	37.622377	39.966156	1.000000	386.630000	6.376000	386.844000	6.278000	13.162400	24.866000	0.000000	46.171118
347.000000	1.333802	1762.302303	37.630479	39.941198	1.000000	385.792000	15.798000	386.018000	15.652000	13.160000	27.504000	0.000000	46.179236
348.000000	4.359464	2263.934142	37.637933	39.918509	1.000000	384.654000	28.344000	384.872000	28.100000	13.160200	27.564000	10.500000	46.194961
349.000000	7.892373	3017.194025	37.645711	39.893874	1.000000	383.166000	44.104000	383.420000	43.720000	13.160800	27.570000	19.000000	46.222606
350.000000	11.477142	2696.543611	37.654461	39.871185	1.000000	382.614000	48.376000	382.888000	47.962000	13.160200	27.082000	25.500000	46.259210
351.000000	14.421449	2313.727472	37.662563	39.845578	1.000000	381.978000	54.290000	382.256000	53.818000	13.161200	25.288000	25.000000	46.305284
352.000000	17.130445	2107.416132	37.673906	39.809599	1.000000	381.498000	58.124000	381.734000	57.636000	13.162000	25.258000	24.500000	46.366823
353.000000	19.644969	1986.328848	37.682008	39.782372	1.000000	381.112000	60.622000	381.370000	60.106000	13.161800	25.202000	25.000000	46.459802
354.000000	21.988682	1844.844080	37.688166	39.758710	1.000000	381.370000	55.650000	381.618000	55.156000	13.161200	25.328000	26.500000	46.526745
355.000000	23.849456	1512.730296	37.695620	39.726296	1.000000	381.322000	55.146000	381.566000	54.668000	13.161800	25.330000	25.500000	46.587178
356.000000	25.537474	1447.211712	37.702750	39.671841	1.000000	381.010000	57.812000	381.270000	57.308000	13.161200	25.322000	22.500000	46.635689
357.000000	27.196646	1350.523685	37.711176	39.623221	1.000000	381.184000	54.396000	381.446000	53.920000	13.162000	25.146000	24.000000	46.703719
358.000000	28.596521	1199.997541	37.714741	39.581083	1.000000	381.422000	50.636000	381.690000	50.194000	13.161800	25.210000	21.500000	46.710483
359.000000	29.665794	901.584249	37.720250	39.534408	1.000000	382.028000	43.192000	382.290000	42.804000	13.161200	25.204000	21.500000	46.710483
360.000000	30.596668	878.720898	37.727380	39.451753	1.000000	381.522000	49.012000	381.784000	48.562000	13.162000	25.166000	18.000000	46.710483
361.000000	31.666913	958.558770	37.731269	39.395678	1.000000	381.660000	46.518000	381.884000	46.126000	13.162000	25.112000	19.500000	46.752485
362.000000	32.524859	693.218461	37.733538	39.346733	1.000000	382.426000	37.234000	382.632000	36.906000	13.162000	25.152000	19.500000	46.736766
363.000000	33.141012	640.418625	37.734510	39.298761	1.000000	382.062000	41.404000	382.298000	41.040000	13.162000	25.296000	15.000000	46.717248
364.000000	33.915660	799.531945	37.734834	39.235230	1.000000	381.938000	42.146000	382.186000	41.780000	13.161800	25.336000	16.000000	46.717248
365.000000	34.458237	551.733940	37.733214	39.164245	1.000000	382.532000	34.978000	382.734000	34.668000	13.161000	25.236000	17.500000	46.709389
366.000000	34.895800	494.672920	37.730297	39.114004	1.000000	382.856000	31.144000	383.068000	30.864000	13.161000	25.232000	14.500000	46.701529
367.000000	35.213114	254.467252	37.727704	39.070570	1.000000	384.314000	13.746000	384.534000	13.592000	13.161200	25.232000	14.000000	46.699083
368.000000	34.930481	-48.612335	37.722519	39.017411	1.000000	384.864000	8.868000	385.088000	8.728000	13.162000	25.078000	8.500000	46.691224
369.000000	34.582051	-19.146615	37.719602	38.959715	1.000000	383.810000	22.046000	384.048000	21.846000	13.161800	25.226000	5.500000	46.690131
370.000000	34.732119	317.303580	37.714093	38.921143	1.000000	383.092000	30.058000	383.318000	29.774000	13.161200	25.172000	9.500000	46.686071
371.000000	35.378091	773.618708	37.708583	38.891647	1.000000	382.660000	33.612000	382.874000	33.318000	13.162000	25.068000	12.000000	46.653541
372.000000	35.805282	513.426485	37.702750	38.861826	1.000000	383.064000	28.552000	383.290000	28.300000	13.162000	25.244000	16.000000	46.660047
373.000000	35.899277	162.213578	37.696592	38.812558	1.000000	384.006000	17.770000	384.214000	17.586000	13.162000	25.236000	14.000000	46.652187
374.000000	35.900573	200.131676	37.689786	38.780468	1.000000	383.856000	20.058000	384.064000	19.862000	13.162000	25.390000	9.000000	46.662754
375.000000	35.901221	193.988641	37.682980	38.756482	1.000000	383.838000	20.246000	384.080000	20.068000	13.162000	25.122000	10.000000	46.692838
376.000000	35.900249	180.556160	37.680388	38.732496	1.000000	383.918000	19.208000	384.168000	19.034000	13.161800	25.190000	10.000000	46.699605
377.000000	35.947571	222.129797	37.669045	38.698462	1.000000	383.606000	23.034000	383.858000	22.836000	13.161200	25.274000	10.000000	46.737548
378.000000	36.047724	282.673300	37.661591	38.667021	1.000000	383.484000	24.282000	383.738000	24.052000	13.162000	25.268000	10.500000	46.749468
379.000000	36.199088	333.483123	37.657378	38.645304	1.000000	383.334000	25.996000	383.564000	25.762000	13.162000	25.198000	11.000000	46.740255
380.000000	36.388374	332.985624	37.653813	38.625207	1.000000	383.456000	24.216000	383.680000	23.988000	13.162000	25.272000	11.500000	46.765185
381.000000	36.390319	114.021039	37.647979	38.596683	1.000000	384.874000	7.712000	385.080000	7.426000	13.162000	25.244000	12.000000	46.786318
382.000000	36.025035	-110.051494	37.638905	38.571076	1.000000	385.830000	-1.974000	386.054000	-2.666000	13.162200	25.084000	7.500000	46.786318
383.000000	35.201121	-488.803775	37.635016	38.551952	1.000000	386.552000	-9.678000	386.766000	-9.660000	13.162800	25.058000	3.500000	46.790379
384.000000	34.300391	-491.549296	37.629507	38.531208	1.000000	386.618000	-9.280000	386.866000	-9.268000	13.161800	25.430000	0.000000	46.829673
385.000000	33.542921	-446.864312	37.624321	38.515001	1.000000	387.352000	-16.450000	387.520000	-16.384000	13.161200	26.258000	0.000000	46.818017
386.000000	31.865599	-1254.761044	37.617515	38.488746	1.000000	389.770000	-43.270000	389.960000	-42.986000	13.162000	26.090000	0.000000	46.850804
387.000000	29.307317	-2056.129269	37.610710	38.476429	1.000000	391.270000	-57.196000	391.426000	-56.794000	13.162200	26.190000	0.000000	46.841592
388.000000	26.184418	-2103.948931	37.610062	38.467677	1.000000	390.596000	-46.302000	390.780000	-45.984000	13.163000	26.006000	0.000000	46.836441
389.000000	23.257937	-2089.313347	37.604876	38.460222	1.000000	390.032000	-38.346000	390.232000	-38.088000	13.162800	26.184000	0.000000	46.877087
390.000000	20.742116	-1781.793180	37.599043	38.452443	1.000000	389.524000	-31.666000	389.724000	-31.464000	13.162000	25.992000	0.000000	46.903370
391.000000	18.183512	-1826.283615	37.595478	38.451470	1.000000	389.318000	-28.388000	389.514000	-28.216000	13.162000	25.968000	0.000000	46.919086
392.000000	15.350053	-2262.908246	37.589320	38.454388	1.000000	389.568000	-30.434000	389.760000	-30.266000	13.162000	26.008000	0.000000	46.945368
393.000000	11.562386	-2778.980350	37.587052	38.454712	1.000000	388.788000	-20.492000	389.028000	-20.388000	13.161800	26.076000	0.000000	47.012291
394.000000	7.870981	-2491.737934	37.583163	38.463788	1.000000	387.716000	-8.014000	387.948000	-7.992000	13.160400	26.766000	0.000000	47.039658
395.000000	5.249174	-1697.222445	37.580894	38.474484	1.000000	386.738000	2.992000	386.948000	2.922000	13.157400	29.660000	0.000000	47.059435
396.000000	2.449424	-2238.825465	37.577005	38.485505	1.000000	386.406000	5.870000	386.650000	5.732000	13.155800	31.658000	0.000000	47.093571
397.000000	-0.108857	-1104.816652	37.577329	38.499118	1.000000	386.408000	5.298000	386.626000	5.208000	13.159000	28.316000	0.000000	47.157779
398.000000	-0.005138	-3.711161	37.573440	38.516946	1.000000	386.478000	4.446000	386.686000	4.360000	13.159000	28.378000	0.000000	47.174846
399.000000	-0.001249	-3.192322	37.573116	38.544173	1.000000	386.466000	4.426000	386.664000	4.350000	13.159200	28.184000	0.000000	47.172406
400.000000	-0.001249	-3.040994	37.575384	38.555842	1.000000	386.442000	4.388000	386.644000	4.290000	13.159800	28.040000	0.000000	47.169698
401.000000	-0.001897	-2.976139	37.574412	38.565890	1.000000	386.356000	4.968000	386.600000	4.878000	13.159200	27.710000	0.000000	47.148836
402.000000	0.484932	899.226534	37.576681	38.577883	1.000000	386.004000	9.112000	386.228000	9.014000	13.160000	27.062000	0.000000	47.142333
403.000000	2.546984	1884.730625	37.577329	38.585338	1.000000	385.256000	17.366000	385.490000	17.218000	13.160000	27.140000	2.500000	47.105757
404.000000	5.042385	2071.574466	37.578949	38.592145	1.000000	384.122000	30.276000	384.330000	30.030000	13.160000	26.968000	11.000000	47.090044
405.000000	8.470928	2811.898996	37.581542	38.595387	1.000000	382.656000	45.928000	382.864000	45.554000	13.160000	27.022000	18.500000	47.099255
406.000000	11.989900	2702.059384	37.584135	38.597980	1.000000	381.664000	55.454000	381.902000	54.970000	13.160200	26.438000	25.000000	47.103318
407.000000	15.221702	2518.265199	37.588996	38.600897	1.000000	380.676000	64.622000	380.910000	64.074000	13.161200	25.058000	26.000000	47.156961
408.000000	18.396783	2476.540015	37.594505	38.598304	1.000000	379.902000	71.184000	380.154000	70.582000	13.161800	25.156000	29.000000	47.184593
409.000000	21.486944	2494.363525	37.596126	38.592145	1.000000	379.244000	76.000000	379.508000	75.360000	13.161200	25.140000	30.000000	47.247444
410.000000	24.564466	2443.575175	37.600015	38.583718	1.000000	381.106000	51.146000	381.384000	50.704000	13.162000	25.292000	34.500000	47.295933
411.000000	25.517055	881.294918	37.605848	38.564918	1.000000	381.242000	51.284000	381.510000	50.828000	13.161800	25.264000	31.500000	47.347130
412.000000	26.982727	1252.343172	37.611358	38.544497	1.000000	381.060000	52.378000	381.316000	51.900000	13.161000	25.290000	19.500000	47.427037
413.000000	28.443537	1294.803700	37.613302	38.527318	1.000000	381.330000	48.160000	381.576000	47.724000	13.161200	25.360000	21.500000	47.474167
414.000000	29.570503	822.200620	37.616543	38.513056	1.000000	382.588000	32.736000	382.854000	32.462000	13.162000	25.464000	22.500000	47.500439
415.000000	29.893975	328.875847	37.618164	38.489070	1.000000	384.002000	17.304000	384.250000	17.140000	13.162000	25.342000	16.000000	47.509648
416.000000	29.895595	152.350114	37.620756	38.465084	1.000000	384.442000	12.800000	384.674000	12.664000	13.162200	25.098000	8.000000	47.491230
417.000000	29.756548	-26.583304	37.623025	38.446284	1.000000	385.272000	4.148000	385.474000	4.032000	13.163000	25.070000	8.000000	47.515066
418.000000	29.363390	-157.568478	37.620432	38.425215	1.000000	385.624000	1.090000	385.830000	1.002000	13.163000	25.152000	5.000000	47.513711
419.000000	28.922262	-191.746981	37.623673	38.404147	1.000000	386.362000	-6.892000	386.552000	-6.902000	13.162800	25.426000	3.500000	47.479856
420.000000	28.117147	-475.486915	37.618488	38.367519	1.000000	388.454000	-30.032000	388.640000	-29.854000	13.162200	26.394000	2.500000	47.443291
421.000000	24.846126	-2860.675943	37.619460	38.345478	1.000000	391.346000	-60.206000	391.528000	-59.788000	13.162800	26.054000	0.000000	47.440581
422.000000	21.254874	-2426.385812	37.617191	38.326030	1.000000	389.958000	-41.004000	390.182000	-40.724000	13.162200	26.214000	0.000000	47.389659
423.000000	18.109612	-2287.877378	37.613302	38.305933	1.000000	389.544000	-34.350000	389.744000	-34.118000	13.163000	26.114000	0.000000	47.392369
424.000000	14.846371	-2499.066538	37.609737	38.284865	1.000000	389.182000	-28.998000	389.384000	-28.812000	13.162800	26.020000	0.000000	47.384514
425.000000	11.385092	-2473.297523	37.606172	38.271575	1.000000	388.332000	-18.614000	388.544000	-18.498000	13.162000	26.176000	0.000000	47.423790
426.000000	8.161069	-2320.412914	37.604228	38.264444	1.000000	387.532000	-9.260000	387.750000	-9.228000	13.161200	26.744000	0.000000	47.442209
427.000000	5.279641	-2095.863689	37.602283	38.256989	1.000000	386.472000	3.028000	386.676000	2.940000	13.157600	30.030000	0.000000	47.464693
428.000000	2.154475	-2347.262840	37.600987	38.250506	1.000000	386.184000	5.902000	386.368000	5.786000	13.156600	30.656000	0.000000	47.510467
429.000000	0.425942	-583.210802	37.598070	38.242403	1.000000	386.142000	5.484000	386.340000	5.388000	13.159000	28.196000	0.000000	47.538095
430.000000	-0.000601	-1.203440	37.597746	38.237865	1.000000	386.224000	4.426000	386.416000	4.346000	13.159000	28.296000	0.000000	47.538095
431.000000	-0.001249	-3.235558	37.597746	38.235920	1.000000	386.200000	4.442000	386.408000	4.362000	13.159200	28.676000	0.000000	47.549739
432.000000	-0.002545	-2.976139	37.598394	38.233651	1.000000	386.206000	4.402000	386.436000	4.322000	13.159800	28.404000	0.000000	47.540805
433.000000	-0.003842	-2.911284	37.599691	38.233651	1.000000	386.226000	4.346000	386.424000	4.260000	13.159200	28.536000	0.000000	47.542159
434.000000	-0.003518	-2.803193	37.601635	38.231382	1.000000	386.212000	4.254000	386.436000	4.148000	13.159800	28.060000	0.000000	47.512097
435.000000	-0.003193	-2.803193	37.603256	38.228141	1.000000	386.222000	4.258000	386.420000	4.164000	13.159200	28.056000	0.000000	47.526451
436.000000	-0.003193	-2.781574	37.610062	38.229437	1.000000	386.226000	4.210000	386.422000	4.106000	13.159800	27.832000	0.000000	47.493953
437.000000	-0.003193	-2.738338	37.614275	38.222631	1.000000	386.214000	4.218000	386.432000	4.134000	13.159000	28.290000	0.000000	47.470389
438.000000	-0.002545	-2.781574	37.618164	38.218741	1.000000	386.222000	4.232000	386.438000	4.134000	13.159200	28.278000	0.000000	47.462534
439.000000	-0.003842	-2.738338	37.623349	38.213879	1.000000	386.196000	4.172000	386.432000	4.080000	13.160000	28.140000	0.000000	47.440602
440.000000	-0.004166	-2.781574	37.625942	38.212258	1.000000	386.222000	4.216000	386.440000	4.120000	13.159800	28.348000	0.000000	47.433825
441.000000	-0.003842	-2.781574	37.634368	38.205451	1.000000	386.234000	4.198000	386.440000	4.112000	13.159000	28.056000	0.000000	47.397260
442.000000	-0.004166	-2.759956	37.640525	38.200265	1.000000	386.254000	4.178000	386.438000	4.074000	13.159200	27.956000	0.000000	47.397260
443.000000	-0.004166	-2.738338	37.644090	38.194431	1.000000	386.268000	4.124000	386.434000	4.046000	13.160000	27.670000	0.000000	47.372617
444.000000	-0.004166	-2.738338	37.651220	38.190541	1.000000	386.260000	4.102000	386.456000	4.030000	13.159800	27.890000	0.000000	47.382905
445.000000	-0.004166	-2.738338	37.656081	38.183086	1.000000	386.256000	4.106000	386.478000	4.024000	13.159200	27.922000	0.000000	47.376684
446.000000	-0.004166	-2.738338	37.665480	38.173686	1.000000	386.176000	4.946000	386.400000	4.864000	13.160000	27.634000	0.000000	47.397538
447.000000	0.534522	871.799165	37.670665	38.172065	1.000000	385.668000	11.198000	385.870000	11.122000	13.160200	27.224000	0.000000	47.404038
448.000000	3.157302	2438.189188	37.675851	38.167203	1.000000	384.454000	24.632000	384.672000	24.430000	13.160800	27.120000	6.500000	47.388606
449.000000	6.588438	2620.058227	37.682332	38.164934	1.000000	383.464000	34.830000	383.708000	34.530000	13.160000	27.168000	18.000000	47.396461
450.000000	9.818295	2504.378435	37.691731	38.160721	1.000000	382.574000	44.010000	382.798000	43.646000	13.160200	27.018000	20.000000	47.412172
451.000000	12.969067	2536.715995	37.698212	38.155859	1.000000	381.446000	55.522000	381.692000	55.042000	13.161200	25.522000	22.000000	47.463369
452.000000	16.097150	2469.055871	37.702750	38.149052	1.000000	380.368000	65.866000	380.632000	65.296000	13.162000	25.046000	25.500000	47.522419
453.000000	19.197035	2452.508560	37.709231	38.143541	1.000000	379.420000	74.930000	379.662000	74.302000	13.162000	25.194000	29.000000	47.574688
454.000000	22.224318	2427.309061	37.718630	38.126686	1.000000	378.366000	84.908000	378.618000	84.194000	13.161800	25.210000	31.500000	47.658651
455.000000	25.249332	2400.011407	37.724463	38.115666	1.000000	378.372000	82.336000	378.626000	81.638000	13.161200	25.218000	34.000000	47.713626
456.000000	27.564198	1215.160469	37.726084	38.103349	1.000000	380.678000	54.096000	380.904000	53.634000	13.162000	25.250000	36.500000	47.787016
457.000000	29.039594	1515.672036	37.729973	38.088438	1.000000	378.752000	76.650000	378.970000	75.992000	13.162000	25.230000	19.500000	47.824924
458.000000	31.046547	1672.730643	37.734186	38.060563	1.000000	379.356000	67.074000	379.600000	66.492000	13.162000	25.178000	28.000000	47.869610
459.000000	32.690161	1397.721284	37.736454	38.033659	1.000000	380.306000	54.852000	380.534000	54.366000	13.162000	25.260000	27.000000	47.899664
460.000000	33.864125	1185.699830	37.735482	38.014860	1.000000	380.028000	58.380000	380.294000	57.866000	13.162000	25.150000	23.000000	47.925932
461.000000	34.837458	735.073310	37.735806	37.993791	1.000000	381.484000	40.678000	381.760000	40.314000	13.162000	25.248000	23.000000	47.929999
462.000000	35.477920	638.644931	37.735158	37.961053	1.000000	382.126000	33.784000	382.344000	33.468000	13.162000	25.476000	17.000000	47.922148
463.000000	35.890850	467.159040	37.733214	37.933177	1.000000	383.120000	22.292000	383.340000	22.074000	13.162000	25.406000	15.500000	47.906443
464.000000	35.947246	217.522521	37.728028	37.914053	1.000000	383.552000	17.942000	383.802000	17.746000	13.162000	25.176000	12.500000	47.909154
465.000000	35.966694	215.099915	37.721871	37.897198	1.000000	383.692000	16.874000	383.912000	16.714000	13.162200	25.128000	10.000000	47.871248
466.000000	36.047724	311.290327	37.719602	37.875157	1.000000	383.288000	21.818000	383.536000	21.598000	13.163000	25.148000	9.000000	47.858255
467.000000	36.200060	294.872849	37.709231	37.854088	1.000000	384.178000	11.436000	384.376000	11.294000	13.162800	25.158000	11.500000	47.816280
468.000000	35.897332	-68.976757	37.701453	37.840799	1.000000	384.424000	9.984000	384.622000	9.818000	13.162200	25.384000	8.500000	47.773230
469.000000	35.656835	122.067549	37.694972	37.833344	1.000000	383.284000	23.690000	383.510000	23.470000	13.162800	25.374000	6.000000	47.770802
470.000000	35.947246	454.461991	37.688490	37.827509	1.000000	383.676000	18.346000	383.886000	18.168000	13.162000	25.432000	10.500000	47.744530
471.000000	35.947571	161.586296	37.677471	37.826213	1.000000	384.004000	14.836000	384.216000	14.678000	13.162200	25.452000	11.000000	47.717186
472.000000	35.733651	3.186857	37.670665	37.827185	1.000000	384.272000	11.892000	384.498000	11.766000	13.162800	25.492000	9.000000	47.684416
473.000000	35.656186	203.765584	37.663535	37.831075	1.000000	383.872000	16.614000	384.108000	16.442000	13.162000	25.448000	7.500000	47.646503
474.000000	35.653593	162.516403	37.655757	37.834640	1.000000	384.486000	9.436000	384.680000	9.322000	13.162000	25.354000	10.000000	47.642719
475.000000	35.440646	74.350880	37.644090	37.844688	1.000000	383.870000	17.232000	384.112000	17.062000	13.162000	25.190000	6.000000	47.628368
476.000000	35.413420	191.652557	37.636312	37.858302	1.000000	383.860000	17.046000	384.078000	16.876000	13.162000	25.302000	9.000000	47.615373
477.000000	35.413744	184.190068	37.627238	37.865433	1.000000	383.866000	16.846000	384.106000	16.682000	13.162000	25.426000	9.500000	47.606162
478.000000	35.412448	180.837355	37.621080	37.873861	1.000000	384.020000	15.100000	384.224000	14.954000	13.162000	25.422000	9.500000	47.615373
479.000000	35.316508	127.107433	37.612654	37.886826	1.000000	383.988000	15.754000	384.206000	15.592000	13.162000	25.420000	8.500000	47.589384
480.000000	35.292847	166.496398	37.603580	37.905950	1.000000	384.330000	11.820000	384.534000	11.688000	13.162200	25.232000	9.000000	47.597238
481.000000	35.020586	-30.409740	37.598070	37.917619	1.000000	384.086000	15.324000	384.280000	15.170000	13.162800	25.270000	7.500000	47.590741
482.000000	35.123981	354.680922	37.592885	37.928964	1.000000	383.238000	24.296000	383.492000	24.082000	13.162000	25.264000	7.500000	47.590741
483.000000	35.365126	391.106527	37.586403	37.944198	1.000000	383.276000	23.194000	383.536000	22.972000	13.162000	25.408000	11.500000	47.575032
484.000000	35.557978	344.774196	37.578301	37.960729	1.000000	384.088000	13.398000	384.308000	13.230000	13.162000	25.428000	12.000000	47.582887
485.000000	35.360913	-24.226912	37.575709	37.976287	1.000000	384.620000	7.824000	384.838000	7.738000	13.162000	25.372000	9.500000	47.566109
486.000000	35.072121	62.519050	37.570199	37.987956	1.000000	384.306000	12.244000	384.518000	12.126000	13.162200	25.294000	6.500000	47.567465
487.000000	34.974885	117.114187	37.565986	38.004163	1.000000	384.016000	15.836000	384.238000	15.684000	13.163000	25.124000	7.500000	47.585888
488.000000	34.956410	163.684445	37.558208	38.028473	1.000000	384.218000	13.374000	384.452000	13.220000	13.162800	25.240000	9.000000	47.559900
489.000000	34.637476	-153.590714	37.553995	38.045653	1.000000	384.574000	9.450000	384.820000	9.296000	13.162000	25.480000	9.000000	47.547974
490.000000	34.529544	262.059524	37.551402	38.059914	1.000000	383.522000	21.832000	383.746000	21.608000	13.162000	25.450000	5.000000	47.550688
491.000000	34.784627	389.073268	37.547189	38.072880	1.000000	385.556000	-3.000000	385.762000	-3.064000	13.162000	25.564000	12.000000	47.523342
492.000000	33.980160	-496.305318	37.543948	38.095894	1.000000	387.890000	-28.798000	388.112000	-28.630000	13.162200	26.436000	6.500000	47.510348
493.000000	31.915837	-1481.039602	37.535198	38.115666	1.000000	388.628000	-34.016000	388.824000	-33.810000	13.163000	26.128000	0.000000	47.497354
494.000000	30.067379	-1352.000074	37.532929	38.130900	1.000000	389.254000	-39.466000	389.466000	-39.224000	13.162800	25.950000	0.000000	47.513063
495.000000	27.946012	-1463.485556	37.528068	38.145486	1.000000	389.744000	-43.510000	389.920000	-43.208000	13.162200	26.142000	0.000000	47.493572
496.000000	25.360505	-1902.898829	37.523531	38.167528	1.000000	390.262000	-47.342000	390.434000	-47.024000	13.162800	26.368000	0.000000	47.520918
497.000000	22.158197	-2299.594495	37.519966	38.190865	1.000000	389.284000	-33.618000	389.506000	-33.420000	13.162000	26.158000	0.000000	47.515778
498.000000	19.736371	-1733.368219	37.514133	38.205776	1.000000	389.506000	-36.166000	389.724000	-35.938000	13.162200	26.238000	0.000000	47.539341
499.000000	16.619308	-2347.760060	37.509595	38.216796	1.000000	389.462000	-34.082000	389.638000	-33.870000	13.163000	25.950000	0.000000	47.556408
500.000000	13.036484	-2904.842155	37.507651	38.226196	1.000000	388.950000	-27.326000	389.152000	-27.160000	13.162800	25.978000	0.000000	47.607605
501.000000	9.368092	-2461.947915	37.500521	38.241106	1.000000	387.772000	-12.980000	387.978000	-12.894000	13.161600	26.552000	0.000000	47.610320
502.000000	6.470783	-1885.539343	37.499549	38.247589	1.000000	386.750000	-1.466000	386.946000	-1.498000	13.159400	28.852000	0.000000	47.640378
503.000000	4.152675	-1742.772173	37.498901	38.252775	1.000000	386.118000	4.946000	386.336000	4.828000	13.157400	30.192000	0.000000	47.677224
504.000000	1.296853	-1976.249685	37.497280	38.256665	1.000000	385.990000	5.648000	386.200000	5.542000	13.159200	28.346000	0.000000	47.725702
505.000000	0.132613	-611.768549	37.494363	38.262823	1.000000	386.004000	5.112000	386.216000	5.020000	13.159800	28.462000	0.000000	47.740051
506.000000	-0.000925	-3.603069	37.493067	38.268658	1.000000	386.054000	4.276000	386.282000	4.176000	13.159000	28.492000	0.000000	47.744124
507.000000	-0.001897	-3.149085	37.492743	38.270603	1.000000	386.032000	4.260000	386.282000	4.164000	13.159000	28.398000	0.000000	47.746839
508.000000	-0.002869	-3.040994	37.492743	38.276113	1.000000	386.044000	4.230000	386.250000	4.146000	13.159000	28.254000	0.000000	47.746839
509.000000	-0.002545	-2.954521	37.495660	38.278382	1.000000	386.038000	4.438000	386.226000	4.342000	13.159200	27.858000	0.000000	47.710288
510.000000	0.189010	69.375888	37.495012	38.281623	1.000000	385.890000	6.304000	386.076000	6.226000	13.160200	27.164000	0.000000	47.680232
511.000000	1.388903	1044.626211	37.496308	38.282920	1.000000	385.522000	9.942000	385.734000	9.856000	13.161000	27.150000	0.000000	47.669663
512.000000	3.331031	2006.726365	37.499549	38.284216	1.000000	385.022000	15.344000	385.240000	15.198000	13.160800	27.180000	4.500000	47.659387
513.000000	5.262787	1490.710514	37.501493	38.286809	1.000000	384.982000	15.152000	385.194000	15.018000	13.160000	27.214000	12.000000	47.646396
514.000000	6.556674	1228.355029	37.505706	38.283892	1.000000	384.578000	19.466000	384.798000	19.308000	13.160000	27.448000	9.000000	47.629330
515.000000	8.295903	1398.089002	37.508623	38.284216	1.000000	384.412000	20.876000	384.634000	20.694000	13.160000	27.288000	11.000000	47.639900
516.000000	9.638409	1005.821237	37.511540	38.285837	1.000000	384.482000	19.432000	384.716000	19.274000	13.160000	27.624000	12.000000	47.675095
517.000000	10.830522	1043.436538	37.513808	38.286161	1.000000	384.054000	23.776000	384.302000	23.580000	13.160200	27.456000	9.000000	47.697592
518.000000	12.220998	1143.520502	37.521911	38.287458	1.000000	383.798000	26.188000	384.034000	25.958000	13.161400	26.688000	12.500000	47.719794
519.000000	13.621521	1183.536787	37.527744	38.291023	1.000000	383.158000	33.184000	383.376000	32.896000	13.162800	25.270000	12.500000	47.755281
520.000000	15.422008	1522.247688	37.531633	38.291347	1.000000	382.384000	41.298000	382.594000	40.938000	13.162000	25.262000	15.000000	47.763134
521.000000	17.278568	1470.572580	37.535198	38.291023	1.000000	382.358000	40.260000	382.568000	39.902000	13.162000	25.390000	19.500000	47.806474
522.000000	18.937739	1334.733472	37.541032	38.295237	1.000000	382.450000	38.316000	382.654000	37.980000	13.161800	25.394000	18.500000	47.831390
523.000000	20.281217	1029.982416	37.548485	38.300423	1.000000	382.860000	32.678000	383.054000	32.396000	13.161200	25.410000	18.000000	47.851170
524.000000	21.315809	855.403309	37.552375	38.305933	1.000000	382.900000	31.620000	383.140000	31.332000	13.162000	25.424000	15.500000	47.890433
525.000000	22.198712	811.515195	37.556264	38.312092	1.000000	382.958000	30.744000	383.170000	30.470000	13.162200	25.480000	14.000000	47.923200
526.000000	23.021329	649.157311	37.559828	38.324085	1.000000	383.206000	27.154000	383.464000	26.904000	13.163000	25.478000	14.000000	47.941621
527.000000	23.685452	644.614924	37.565986	38.343533	1.000000	383.322000	25.552000	383.574000	25.312000	13.162800	25.446000	12.500000	47.935127
528.000000	24.271137	514.659418	37.567931	38.357471	1.000000	383.630000	21.852000	383.886000	21.658000	13.162200	25.384000	12.500000	47.939202
529.000000	24.717450	426.710177	37.569551	38.370436	1.000000	384.116000	16.082000	384.348000	15.924000	13.162800	25.528000	11.500000	47.967893
530.000000	24.862008	169.416502	37.572144	38.386967	1.000000	384.472000	12.532000	384.674000	12.424000	13.162000	25.558000	9.500000	47.967894
531.000000	24.909005	179.150184	37.574088	38.410305	1.000000	384.520000	12.134000	384.734000	12.028000	13.162000	25.566000	7.500000	47.966833
532.000000	24.957947	168.378243	37.574412	38.424891	1.000000	384.524000	12.408000	384.752000	12.280000	13.162200	25.586000	7.500000	47.944636
533.000000	25.008510	166.150311	37.574088	38.443367	1.000000	384.536000	12.398000	384.756000	12.282000	13.162800	25.396000	7.000000	47.945994
534.000000	25.059397	163.900749	37.573440	38.460870	1.000000	384.396000	14.180000	384.618000	14.062000	13.162200	25.374000	7.000000	47.943277
535.000000	25.110284	219.382736	37.572468	38.487125	1.000000	383.964000	19.180000	384.184000	18.998000	13.163000	25.496000	7.000000	47.918662
536.000000	25.454500	406.464116	37.573440	38.503008	1.000000	384.248000	15.348000	384.434000	15.200000	13.162800	25.436000	9.000000	47.909451
537.000000	25.549467	191.566036	37.570523	38.517918	1.000000	384.460000	12.912000	384.660000	12.788000	13.162000	25.436000	8.500000	47.910809
538.000000	25.693376	269.219188	37.570847	38.532828	1.000000	384.924000	7.562000	385.098000	7.488000	13.162200	25.488000	7.500000	47.896463
539.000000	25.332630	-143.970579	37.567606	38.558111	1.000000	385.084000	6.300000	385.314000	6.174000	13.163000	25.416000	6.500000	47.878341
540.000000	25.159226	65.331002	37.565986	38.579828	1.000000	384.722000	10.554000	384.950000	10.444000	13.163200	25.332000	3.500000	47.879700
541.000000	25.109312	92.152702	37.564690	38.602518	1.000000	384.808000	9.592000	385.028000	9.480000	13.163800	25.362000	6.500000	47.883777
542.000000	24.966375	12.120213	37.561125	38.621317	1.000000	384.898000	8.830000	385.124000	8.712000	13.163200	25.286000	6.000000	47.883777
543.000000	24.819872	10.433042	37.558532	38.648545	1.000000	385.464000	2.256000	385.704000	2.168000	13.163800	25.372000	5.500000	47.883777
544.000000	24.233215	-412.123736	37.556588	38.674800	1.000000	386.656000	-10.940000	386.854000	-10.896000	13.163000	25.840000	4.500000	47.890572
545.000000	22.838526	-1498.074809	37.553671	38.694572	1.000000	388.706000	-33.686000	388.906000	-33.468000	13.163000	26.064000	0.000000	47.881361
546.000000	20.325622	-1849.609748	37.552375	38.710455	1.000000	388.924000	-33.850000	389.154000	-33.648000	13.163000	26.020000	0.000000	47.882720
547.000000	17.502859	-2030.943959	37.551402	38.726986	1.000000	388.728000	-29.716000	388.914000	-29.544000	13.162600	26.246000	0.000000	47.891931
548.000000	14.018568	-2924.622911	37.547513	38.761020	1.000000	388.440000	-24.742000	388.622000	-24.586000	13.161200	26.740000	0.000000	47.883023
549.000000	10.057172	-3017.214153	37.543948	38.775606	1.000000	387.286000	-11.040000	387.506000	-10.998000	13.161600	26.790000	0.000000	47.909299
550.000000	6.262373	-2495.088771	37.541356	38.785978	1.000000	386.376000	-0.266000	386.570000	-0.306000	13.158800	29.308000	0.000000	47.968037
551.000000	3.332003	-2226.005816	37.538439	38.797323	1.000000	385.828000	5.248000	386.072000	5.166000	13.155000	32.024000	0.000000	47.975889
552.000000	0.464836	-2156.416527	37.536170	38.814178	1.000000	385.796000	5.094000	386.010000	4.996000	13.158600	29.060000	0.000000	48.049273
553.000000	-0.131221	-102.701278	37.532929	38.818716	1.000000	385.858000	4.182000	386.054000	4.064000	13.157600	29.564000	0.000000	48.058484
554.000000	-0.052784	-3.322032	37.533902	38.824226	1.000000	385.848000	4.156000	386.068000	4.082000	13.159800	28.198000	0.000000	48.063921
555.000000	-0.003518	-3.062612	37.531957	38.828116	1.000000	385.838000	4.162000	386.056000	4.072000	13.159000	28.816000	0.000000	48.063921
556.000000	-0.003193	-2.889666	37.530985	38.835571	1.000000	385.832000	4.080000	386.048000	3.988000	13.159200	28.868000	0.000000	48.071772
557.000000	-0.003193	-2.889666	37.531957	38.841730	1.000000	385.840000	4.034000	386.076000	3.938000	13.159800	28.106000	0.000000	48.066640
558.000000	-0.003518	-2.846429	37.530985	38.846268	1.000000	385.836000	4.020000	386.060000	3.940000	13.158800	28.734000	0.000000	48.028742
559.000000	-0.003518	-2.781574	37.532605	38.845943	1.000000	385.830000	4.044000	386.058000	3.964000	13.158400	29.504000	0.000000	48.030101
560.000000	-0.004166	-2.781574	37.531309	38.846268	1.000000	385.866000	3.998000	386.052000	3.912000	13.159600	28.382000	0.000000	47.988124
561.000000	-0.004166	-2.759956	37.532929	38.845295	1.000000	385.848000	4.058000	386.056000	3.956000	13.158200	29.572000	0.000000	47.957022
562.000000	-0.003518	-2.738338	37.536494	38.842702	1.000000	385.840000	4.018000	386.040000	3.944000	13.159200	28.850000	0.000000	47.933465
563.000000	-0.004166	-2.781574	37.537791	38.841730	1.000000	385.846000	4.042000	386.050000	3.956000	13.160000	28.742000	0.000000	47.917761
564.000000	-0.004166	-2.738338	37.541356	38.840757	1.000000	385.866000	4.010000	386.088000	3.932000	13.160000	28.412000	0.000000	47.895564
565.000000	-0.004166	-2.738338	37.543624	38.836219	1.000000	385.848000	4.012000	386.076000	3.904000	13.159800	28.348000	0.000000	47.908855
566.000000	-0.004166	-2.738338	37.545245	38.829737	1.000000	385.840000	4.024000	386.064000	3.924000	13.159200	28.796000	0.000000	47.882579
567.000000	-0.004166	-2.738338	37.548161	38.822606	1.000000	385.790000	4.582000	386.032000	4.484000	13.160000	27.760000	0.000000	47.886658
568.000000	0.407791	855.035592	37.552699	38.815475	1.000000	385.384000	9.210000	385.628000	9.104000	13.160000	27.258000	0.000000	47.878806
569.000000	2.590740	2141.224538	37.559180	38.795702	1.000000	384.270000	22.180000	384.502000	21.988000	13.160000	27.438000	0.000000	47.863101
570.000000	5.931122	2636.908371	37.562097	38.780468	1.000000	382.892000	37.054000	383.162000	36.752000	13.160000	27.208000	15.500000	47.892099
571.000000	9.663690	2885.247993	37.566634	38.768151	1.000000	382.170000	44.190000	382.404000	43.814000	13.160200	26.978000	23.000000	47.912935
572.000000	12.701668	2119.810384	37.571171	38.756806	1.000000	382.814000	34.504000	383.064000	34.190000	13.161200	26.172000	25.000000	47.935440
573.000000	14.402326	1297.226308	37.575709	38.743517	1.000000	383.066000	31.262000	383.312000	30.980000	13.162400	25.210000	17.500000	47.990404
574.000000	15.816462	1009.087430	37.581218	38.736386	1.000000	383.696000	23.394000	383.930000	23.172000	13.163800	25.198000	15.500000	48.068920
575.000000	16.729185	536.571023	37.583811	38.733793	1.000000	384.986000	8.012000	385.234000	7.908000	13.163000	25.318000	13.000000	48.129319
576.000000	16.564856	-32.636424	37.589320	38.733144	1.000000	384.810000	11.240000	385.040000	11.146000	13.163000	25.344000	3.500000	48.197257
577.000000	16.804380	428.094523	37.594181	38.733468	1.000000	384.372000	16.504000	384.564000	16.354000	13.163000	25.322000	3.500000	48.223528
578.000000	17.269169	420.458990	37.600663	38.735089	1.000000	384.554000	14.028000	384.756000	13.880000	13.163000	25.326000	8.500000	48.231378
579.000000	17.562822	346.569519	37.604876	38.740924	1.000000	384.666000	12.694000	384.876000	12.562000	13.163000	25.318000	7.000000	48.236818
580.000000	17.689553	170.195197	37.606172	38.746434	1.000000	385.004000	8.804000	385.220000	8.700000	13.163000	25.336000	7.000000	48.249799
581.000000	17.691497	60.875139	37.609737	38.754537	1.000000	385.542000	2.864000	385.778000	2.656000	13.163000	25.240000	5.000000	48.213267
582.000000	17.128825	-352.219481	37.612978	38.777227	1.000000	385.794000	0.854000	386.018000	0.384000	13.163200	25.126000	2.000000	48.198926
583.000000	16.670843	-156.660510	37.616219	38.794406	1.000000	385.380000	5.624000	385.612000	5.514000	13.163800	25.330000	0.000000	48.188666
584.000000	16.420946	-73.538215	37.617191	38.814178	1.000000	384.914000	11.254000	385.118000	11.142000	13.163000	25.420000	2.500000	48.174324
585.000000	16.663388	268.462124	37.617191	38.830709	1.000000	384.862000	11.464000	385.080000	11.350000	13.163000	25.448000	5.500000	48.152132
586.000000	16.857212	250.552149	37.617191	38.863123	1.000000	385.146000	8.028000	385.354000	7.932000	13.163000	25.384000	6.000000	48.147002
587.000000	16.789147	66.996543	37.616867	38.886136	1.000000	385.404000	5.116000	385.612000	5.002000	13.163000	25.308000	4.500000	48.116959
588.000000	16.565828	70.349256	37.616543	38.899102	1.000000	385.244000	6.918000	385.480000	6.818000	13.163000	25.274000	2.500000	48.116959
589.000000	16.467620	42.121581	37.617191	38.917253	1.000000	385.316000	6.520000	385.534000	6.392000	13.163000	25.342000	3.500000	48.086914
590.000000	16.323710	27.499429	37.616543	38.944805	1.000000	385.100000	9.244000	385.310000	9.148000	13.163000	25.420000	3.000000	48.085867
591.000000	16.461137	283.322213	37.615571	38.967819	1.000000	384.604000	14.922000	384.816000	14.766000	13.163000	25.518000	4.000000	48.083145
592.000000	16.854619	422.730182	37.613951	38.983377	1.000000	384.466000	15.952000	384.684000	15.800000	13.163000	25.416000	7.000000	48.060952
593.000000	17.293802	510.982249	37.613626	39.000880	1.000000	384.058000	20.298000	384.270000	20.094000	13.163000	25.354000	7.500000	48.049331
594.000000	18.094055	799.661728	37.612330	39.017087	1.000000	383.492000	26.384000	383.716000	26.154000	13.162800	25.368000	9.000000	48.058544
595.000000	19.066415	977.550278	37.609413	39.040425	1.000000	383.132000	29.742000	383.372000	29.482000	13.162000	25.466000	12.000000	48.058544
596.000000	20.002150	665.791098	37.609413	39.050149	1.000000	383.584000	23.638000	383.820000	23.426000	13.162000	25.266000	14.500000	48.091310
597.000000	20.688636	640.981015	37.606172	39.059549	1.000000	383.858000	20.194000	384.078000	20.034000	13.162200	25.332000	11.000000	48.100522
598.000000	21.004654	108.786481	37.605200	39.073163	1.000000	384.792000	9.484000	385.006000	9.390000	13.163000	25.320000	11.000000	48.134648
599.000000	20.961870	228.207941	37.603256	39.096500	1.000000	384.286000	15.894000	384.482000	15.738000	13.163000	25.250000	4.500000	48.162284
600.000000	21.270108	402.765316	37.602283	39.117569	1.000000	383.802000	21.400000	384.016000	21.216000	13.163000	25.308000	7.500000	48.175264
601.000000	21.806203	543.319711	37.599043	39.135721	1.000000	383.804000	20.958000	384.000000	20.768000	13.163000	25.364000	9.500000	48.188558
602.000000	22.230800	359.591024	37.598394	39.149659	1.000000	384.282000	14.936000	384.494000	14.788000	13.162800	25.348000	10.500000	48.191281
603.000000	22.470325	302.876099	37.594830	39.180776	1.000000	384.398000	13.658000	384.592000	13.524000	13.162200	25.512000	8.000000	48.189919
604.000000	22.542928	166.496398	37.591265	39.206058	1.000000	384.534000	12.374000	384.772000	12.268000	13.163000	25.410000	8.000000	48.205621
605.000000	22.590574	159.336734	37.589644	39.230693	1.000000	384.458000	13.454000	384.654000	13.344000	13.163000	25.420000	6.500000	48.191597
606.000000	22.718925	294.440241	37.582514	39.253706	1.000000	383.514000	24.410000	383.734000	24.196000	13.162800	25.316000	6.500000	48.225405
607.000000	23.559693	898.318056	37.580894	39.281906	1.000000	382.346000	37.328000	382.566000	37.006000	13.162000	25.398000	9.500000	48.217555
608.000000	24.679852	1115.098126	37.578301	39.320478	1.000000	381.888000	41.690000	382.098000	41.332000	13.162200	25.450000	15.500000	48.204576
609.000000	25.756256	858.345046	37.574088	39.349002	1.000000	382.446000	34.266000	382.628000	33.962000	13.163000	25.352000	19.000000	48.194320
610.000000	26.567529	714.329744	37.571495	39.376554	1.000000	383.362000	22.696000	383.584000	22.470000	13.163000	25.270000	16.000000	48.202171
611.000000	26.799599	40.931909	37.564690	39.409615	1.000000	385.788000	-5.310000	385.982000	-5.316000	13.162800	25.510000	14.000000	48.203532
612.000000	26.041806	-436.984758	37.560153	39.447215	1.000000	387.276000	-21.084000	387.486000	-20.986000	13.162400	26.556000	1.000000	48.234934
613.000000	23.326651	-2760.194040	37.555291	39.473794	1.000000	390.782000	-59.516000	390.988000	-59.094000	13.164000	26.238000	0.000000	48.228445
614.000000	19.285520	-2841.543738	37.551726	39.491946	1.000000	389.652000	-42.306000	389.842000	-42.016000	13.163800	26.122000	0.000000	48.239018
615.000000	15.802201	-2444.718130	37.548161	39.516580	1.000000	388.792000	-30.814000	388.982000	-30.616000	13.162800	26.058000	0.000000	48.243103
616.000000	12.546738	-2333.362274	37.540383	39.544456	1.000000	388.082000	-21.708000	388.280000	-21.574000	13.162000	26.196000	0.000000	48.243103
617.000000	9.289655	-2436.524794	37.537467	39.556773	1.000000	387.358000	-13.006000	387.588000	-12.952000	13.161400	26.528000	0.000000	48.249592
618.000000	6.119112	-2093.896425	37.534874	39.564876	1.000000	386.228000	0.014000	386.454000	-0.014000	13.158400	29.272000	0.000000	48.298374
619.000000	2.921343	-2651.994414	37.532929	39.572980	1.000000	385.726000	5.148000	385.938000	5.044000	13.156600	30.882000	0.000000	48.329774
620.000000	0.040563	-884.007541	37.530013	39.587242	1.000000	385.684000	4.914000	385.904000	4.798000	13.159000	28.510000	0.000000	48.359811
621.000000	-0.001249	-3.797634	37.525476	39.595669	1.000000	385.740000	4.010000	385.964000	3.912000	13.159200	28.556000	0.000000	48.395295
622.000000	-0.001573	-3.192322	37.524179	39.600207	1.000000	385.744000	4.014000	385.970000	3.922000	13.160000	28.434000	0.000000	48.383361
623.000000	-0.003842	-2.954521	37.523207	39.602800	1.000000	385.760000	4.004000	385.932000	3.906000	13.160000	28.406000	0.000000	48.396657
624.000000	-0.003842	-2.954521	37.519966	39.601828	1.000000	385.762000	3.898000	385.942000	3.808000	13.160200	28.070000	0.000000	48.388807
625.000000	-0.003193	-2.868048	37.522883	39.598587	1.000000	385.764000	3.898000	385.952000	3.804000	13.160800	28.084000	0.000000	48.347156
626.000000	-0.003518	-2.738338	37.523855	39.595993	1.000000	385.742000	3.928000	385.956000	3.818000	13.159800	28.130000	0.000000	48.323606
627.000000	-0.004166	-2.738338	37.524503	39.594373	1.000000	385.746000	3.922000	385.944000	3.820000	13.159000	28.102000	0.000000	48.302780
628.000000	-0.004166	-2.738338	37.526124	39.591780	1.000000	385.732000	3.914000	385.954000	3.840000	13.159200	28.128000	0.000000	48.260806
629.000000	-0.004166	-2.803193	37.527744	39.590807	1.000000	385.742000	3.860000	385.934000	3.770000	13.160200	28.052000	0.000000	48.254317
630.000000	-0.003842	-2.738338	37.529365	39.590159	1.000000	385.756000	3.898000	385.954000	3.810000	13.160800	28.088000	0.000000	48.219151
631.000000	-0.003842	-2.738338	37.533578	39.594049	1.000000	385.774000	3.882000	385.972000	3.798000	13.160000	28.058000	0.000000	48.199686
632.000000	-0.003193	-2.738338	37.534874	39.595345	1.000000	385.750000	3.860000	385.982000	3.760000	13.160000	28.144000	0.000000	48.194560
633.000000	-0.004166	-2.738338	37.541680	39.591131	1.000000	385.754000	3.906000	385.982000	3.808000	13.160000	28.180000	0.000000	48.169645
634.000000	-0.004166	-2.738338	37.544272	39.586918	1.000000	385.766000	3.922000	385.958000	3.830000	13.160000	28.070000	0.000000	48.171008
635.000000	-0.004166	-2.695101	37.546217	39.581407	1.000000	385.752000	3.898000	385.986000	3.798000	13.160000	27.982000	0.000000	48.147455
636.000000	-0.004166	-2.738338	37.551078	39.574601	1.000000	385.760000	3.918000	385.970000	3.818000	13.159800	28.164000	0.000000	48.184308
637.000000	-0.004166	-2.738338	37.556912	39.563580	1.000000	385.764000	3.876000	385.972000	3.776000	13.159200	28.330000	0.000000	48.190796
638.000000	-0.004166	-2.738338	37.564366	39.556773	1.000000	385.778000	3.900000	385.978000	3.796000	13.160000	28.144000	0.000000	48.164843
639.000000	-0.004166	-2.738338	37.567606	39.549642	1.000000	385.770000	3.906000	385.970000	3.788000	13.160000	28.186000	0.000000	48.187033
640.000000	-0.004814	-2.716720	37.572468	39.539918	1.000000	385.768000	3.920000	385.972000	3.816000	13.160200	28.136000	0.000000	48.196246
641.000000	-0.004490	-2.738338	37.577977	39.528897	1.000000	385.768000	3.878000	385.978000	3.792000	13.160800	28.158000	0.000000	48.202734
642.000000	-0.004490	-2.738338	37.586403	39.512042	1.000000	385.794000	3.878000	385.974000	3.772000	13.160000	28.134000	0.000000	48.192483
643.000000	-0.004166	-2.716720	37.591265	39.500049	1.000000	385.766000	3.904000	385.990000	3.814000	13.160000	28.024000	0.000000	48.208185
644.000000	-0.004490	-2.738338	37.597746	39.491946	1.000000	385.718000	4.328000	385.952000	4.234000	13.160200	27.720000	0.000000	48.208185
645.000000	0.405522	847.962446	37.603256	39.479953	1.000000	385.470000	7.490000	385.676000	7.382000	13.161000	27.198000	0.000000	48.214998
646.000000	2.136648	1707.858479	37.612330	39.466987	1.000000	384.820000	14.774000	385.024000	14.660000	13.161000	27.084000	0.000000	48.213635
647.000000	4.733499	2225.864528	37.618488	39.459532	1.000000	384.018000	23.332000	384.270000	23.148000	13.160800	27.252000	9.500000	48.205785
648.000000	7.250291	1953.666867	37.623349	39.452077	1.000000	383.362000	30.378000	383.586000	30.122000	13.160000	27.062000	16.000000	48.216361
649.000000	9.913587	2143.409214	37.627886	39.445919	1.000000	382.792000	35.552000	383.036000	35.248000	13.160400	27.030000	17.000000	48.234787
650.000000	12.327957	1688.066625	37.637933	39.430684	1.000000	383.252000	28.830000	383.510000	28.588000	13.162200	26.576000	19.500000	48.283252
651.000000	13.712274	986.072664	37.643118	39.422581	1.000000	383.232000	29.202000	383.472000	28.938000	13.163000	25.370000	15.000000	48.333078
652.000000	15.271616	1491.813666	37.647655	39.416422	1.000000	382.276000	39.982000	382.488000	39.652000	13.162800	25.252000	12.500000	48.380177
653.000000	17.172257	1494.409318	37.651544	39.413505	1.000000	381.984000	41.814000	382.244000	41.436000	13.162000	25.286000	18.500000	48.435123
654.000000	19.027521	1558.435407	37.661915	39.410588	1.000000	381.572000	45.642000	381.824000	45.240000	13.162000	25.352000	18.500000	48.464122
655.000000	20.720724	1293.246310	37.667424	39.409291	1.000000	381.866000	41.442000	382.094000	41.084000	13.162200	25.254000	20.500000	48.483908
656.000000	22.133564	1096.798789	37.668721	39.408319	1.000000	382.238000	36.278000	382.484000	35.970000	13.163000	25.424000	18.500000	48.515304
657.000000	23.213533	922.673906	37.673258	39.409615	1.000000	382.442000	33.690000	382.644000	33.400000	13.163000	25.260000	16.500000	48.538851
658.000000	24.074396	587.078031	37.675527	39.413181	1.000000	382.848000	28.200000	383.094000	27.952000	13.163000	25.334000	15.500000	48.543974
659.000000	24.927156	821.530078	37.680388	39.419340	1.000000	383.064000	25.724000	383.288000	25.488000	13.163000	25.330000	12.000000	48.554877
660.000000	25.419819	471.355340	37.680064	39.426471	1.000000	382.888000	28.108000	383.096000	27.850000	13.163000	25.400000	13.000000	48.558637
661.000000	26.042454	781.340766	37.682008	39.435870	1.000000	381.720000	41.464000	381.956000	41.108000	13.163200	25.398000	11.000000	48.562726
662.000000	27.227437	819.453558	37.680388	39.446567	1.000000	384.320000	9.580000	384.538000	9.470000	13.164000	25.532000	20.000000	48.552151
663.000000	26.710141	-420.122500	37.679416	39.474118	1.000000	385.510000	-2.880000	385.728000	-2.888000	13.163800	25.422000	10.500000	48.524845
664.000000	26.286840	60.118075	37.678443	39.494215	1.000000	384.478000	10.140000	384.726000	10.052000	13.163000	25.292000	0.000000	48.528935
665.000000	26.240167	102.643447	37.676823	39.511394	1.000000	384.306000	12.500000	384.540000	12.376000	13.163000	25.356000	6.500000	48.516997
666.000000	26.281006	138.311982	37.670989	39.526304	1.000000	384.140000	14.444000	384.350000	14.306000	13.163000	25.302000	6.500000	48.510841
667.000000	26.328652	195.892117	37.665156	39.554828	1.000000	384.508000	10.114000	384.718000	10.012000	13.163000	25.472000	8.000000	48.485931
668.000000	25.976333	-387.716698	37.659322	39.584649	1.000000	385.864000	-5.240000	386.070000	-5.234000	13.162800	25.664000	7.500000	48.471596
669.000000	25.235070	-425.073086	37.653813	39.603773	1.000000	386.376000	-9.940000	386.570000	-9.916000	13.162200	26.354000	0.000000	48.441563
670.000000	23.905853	-1167.379953	37.649924	39.626462	1.000000	388.090000	-29.376000	388.302000	-29.184000	13.163000	26.140000	0.000000	48.411529
671.000000	21.650625	-1778.399109	37.638905	39.660497	1.000000	389.360000	-42.270000	389.584000	-41.978000	13.163000	26.054000	0.000000	48.412893
672.000000	18.288527	-2476.237612	37.632099	39.688048	1.000000	388.222000	-26.342000	388.460000	-26.190000	13.162800	26.210000	0.000000	48.418347
673.000000	16.344778	-1063.547353	37.624969	39.711386	1.000000	387.290000	-15.024000	387.510000	-14.960000	13.162200	26.264000	0.000000	48.407771
674.000000	14.183221	-2170.273854	37.621080	39.728889	1.000000	388.172000	-24.818000	388.356000	-24.668000	13.163000	26.140000	0.000000	48.414256
675.000000	11.023698	-2157.043458	37.617191	39.749958	1.000000	387.428000	-15.392000	387.636000	-15.298000	13.163000	26.070000	0.000000	48.435410
676.000000	8.224272	-1984.118742	37.609737	39.771675	1.000000	386.812000	-8.032000	387.046000	-8.008000	13.162400	26.574000	0.000000	48.470898
677.000000	5.791103	-1513.272462	37.604228	39.778482	1.000000	386.052000	0.966000	386.258000	0.946000	13.159800	28.548000	0.000000	48.494445
678.000000	3.692101	-1472.954364	37.599691	39.789503	1.000000	385.672000	4.984000	385.868000	4.878000	13.157800	29.916000	0.000000	48.511506
679.000000	1.643985	-1559.492352	37.596774	39.795985	1.000000	385.584000	5.348000	385.796000	5.228000	13.154400	32.426000	0.000000	48.529932
680.000000	-0.099457	-91.200351	37.590292	39.802792	1.000000	385.680000	4.270000	385.868000	4.192000	13.160000	28.188000	0.000000	48.548357
681.000000	-0.028151	-3.386886	37.585431	39.803440	1.000000	385.674000	3.998000	385.898000	3.924000	13.160000	28.416000	0.000000	48.581115
682.000000	-0.002869	-3.084230	37.583487	39.809599	1.000000	385.652000	4.032000	385.890000	3.938000	13.160000	28.388000	0.000000	48.557569
683.000000	-0.003518	-2.932902	37.584135	39.813813	1.000000	385.662000	4.008000	385.886000	3.898000	13.160000	28.286000	0.000000	48.553812
684.000000	-0.004166	-2.846429	37.581218	39.820620	1.000000	385.670000	3.884000	385.872000	3.774000	13.160000	28.020000	0.000000	48.515933
685.000000	-0.003842	-2.846429	37.581542	39.821916	1.000000	385.668000	3.900000	385.880000	3.794000	13.160000	27.860000	0.000000	48.535722
686.000000	-0.003518	-2.846429	37.580894	39.822564	1.000000	385.664000	3.894000	385.882000	3.804000	13.160000	28.036000	0.000000	48.508084
687.000000	-0.004166	-2.738338	37.582190	39.821592	1.000000	385.682000	3.874000	385.886000	3.782000	13.160000	28.110000	0.000000	48.465082
688.000000	-0.004166	-2.738338	37.581218	39.817054	1.000000	385.688000	3.892000	385.870000	3.792000	13.160000	28.142000	0.000000	48.440170
689.000000	-0.004166	-2.738338	37.581542	39.814137	1.000000	385.680000	3.908000	385.876000	3.810000	13.160000	28.086000	0.000000	48.418323
690.000000	-0.004166	-2.738338	37.584459	39.810571	1.000000	385.680000	3.932000	385.898000	3.838000	13.160000	27.982000	0.000000	48.407745
691.000000	-0.004814	-2.738338	37.585755	39.805061	1.000000	385.678000	3.904000	385.892000	3.796000	13.160000	27.970000	0.000000	48.402624
692.000000	-0.004166	-2.738338	37.589320	39.800523	1.000000	385.634000	4.292000	385.866000	4.192000	13.160200	27.840000	0.000000	48.380440
693.000000	0.256103	260.826593	37.591589	39.790475	1.000000	385.444000	6.326000	385.680000	6.230000	13.161000	27.038000	0.000000	48.358255
694.000000	1.574299	1224.375030	37.596774	39.781399	1.000000	385.232000	8.788000	385.452000	8.708000	13.161000	27.190000	0.000000	48.370199
695.000000	2.986815	1117.239538	37.597746	39.770703	1.000000	385.044000	10.750000	385.264000	10.660000	13.161000	27.182000	4.000000	48.383507
696.000000	4.212313	1083.171623	37.599691	39.757737	1.000000	384.556000	16.206000	384.778000	16.064000	13.160800	27.242000	5.000000	48.379413
697.000000	6.198197	1786.593291	37.605848	39.729213	1.000000	383.670000	25.946000	383.904000	25.742000	13.160200	27.544000	10.000000	48.379413
698.000000	8.791159	2085.677524	37.609089	39.712034	1.000000	382.972000	32.950000	383.218000	32.678000	13.161000	27.258000	15.500000	48.422755
699.000000	11.327074	1991.931136	37.613626	39.698745	1.000000	382.750000	34.470000	382.974000	34.172000	13.161200	26.870000	17.500000	48.455516
700.000000	13.417649	1541.823232	37.615571	39.686103	1.000000	383.388000	25.970000	383.602000	25.750000	13.162400	25.560000	18.500000	48.505340
701.000000	14.526788	905.066746	37.622701	39.671841	1.000000	383.356000	25.996000	383.614000	25.752000	13.163800	25.110000	12.500000	48.543220
702.000000	15.940276	1177.826355	37.626914	39.668924	1.000000	384.042000	17.222000	384.248000	17.056000	13.163000	25.132000	13.000000	48.602254
703.000000	16.274768	240.883358	37.629831	39.667952	1.000000	384.618000	11.102000	384.814000	10.990000	13.163000	25.368000	10.000000	48.627163
704.000000	16.417381	203.981888	37.631127	39.667303	1.000000	384.478000	13.022000	384.702000	12.894000	13.163000	25.280000	5.500000	48.665039
705.000000	16.567125	204.414496	37.636312	39.674110	1.000000	383.518000	24.608000	383.742000	24.410000	13.163000	25.128000	5.500000	48.675617
706.000000	17.720020	1130.607139	37.640850	39.680917	1.000000	382.420000	37.048000	382.588000	36.708000	13.163000	25.196000	7.500000	48.688923
707.000000	18.985709	1028.468287	37.643118	39.687400	1.000000	382.362000	36.564000	382.566000	36.262000	13.162800	25.410000	16.500000	48.690288
708.000000	20.325622	1120.419210	37.645063	39.697124	1.000000	382.340000	35.680000	382.560000	35.368000	13.162200	25.588000	16.500000	48.673227
709.000000	21.498937	973.505390	37.647007	39.705551	1.000000	382.810000	29.354000	383.032000	29.068000	13.163000	25.154000	16.500000	48.675957
710.000000	22.388971	727.805492	37.649600	39.725324	1.000000	384.054000	14.208000	384.282000	14.068000	13.163200	25.026000	15.000000	48.669474
711.000000	22.373089	33.880397	37.650896	39.738289	1.000000	384.592000	9.156000	384.808000	9.048000	13.163800	24.970000	8.500000	48.677322
712.000000	22.062582	-185.131787	37.653489	39.751255	1.000000	383.994000	17.146000	384.208000	16.998000	13.162800	25.138000	5.000000	48.680052
713.000000	22.465463	492.401727	37.650896	39.764220	1.000000	383.502000	22.036000	383.762000	21.856000	13.162200	25.196000	5.500000	48.672204
714.000000	22.929279	491.731185	37.654461	39.782372	1.000000	383.824000	17.666000	384.046000	17.502000	13.163000	25.326000	10.500000	48.667086
715.000000	23.300073	329.762694	37.649600	39.795985	1.000000	385.076000	2.728000	385.298000	2.638000	13.163000	25.366000	10.500000	48.644907
716.000000	22.703043	-408.794521	37.649600	39.805061	1.000000	385.716000	-3.416000	385.916000	-3.464000	13.162600	25.528000	6.000000	48.667429
717.000000	22.013316	-391.499897	37.649924	39.814785	1.000000	386.090000	-7.112000	386.318000	-7.122000	13.161200	26.998000	0.000000	48.625458
718.000000	21.033824	-778.077972	37.646683	39.832288	1.000000	387.554000	-23.168000	387.738000	-23.036000	13.162200	26.178000	0.000000	48.618975
719.000000	18.551388	-1917.707357	37.640850	39.848495	1.000000	388.498000	-32.108000	388.692000	-31.892000	13.163000	26.108000	0.000000	48.606009
720.000000	15.536098	-2401.070784	37.636960	39.863081	1.000000	388.528000	-30.900000	388.708000	-30.712000	13.163000	26.054000	0.000000	48.600891
721.000000	12.125706	-2442.318499	37.634692	39.873454	1.000000	387.730000	-19.958000	387.952000	-19.836000	13.163000	26.216000	0.000000	48.602257
722.000000	9.049158	-2147.336844	37.630803	39.886095	1.000000	386.956000	-10.634000	387.176000	-10.598000	13.162600	26.692000	0.000000	48.617953
723.000000	6.283117	-1766.638762	37.626266	39.904571	1.000000	386.156000	-1.328000	386.342000	-1.360000	13.160400	28.400000	0.000000	48.650712
724.000000	4.663813	-971.842610	37.623349	39.915267	1.000000	385.700000	3.664000	385.910000	3.580000	13.158400	29.026000	0.000000	48.679718
725.000000	3.443176	-886.969245	37.620756	39.924019	1.000000	385.524000	5.170000	385.734000	5.070000	13.159400	28.640000	0.000000	48.736018
726.000000	2.196610	-929.686965	37.617191	39.936984	1.000000	385.448000	5.748000	385.660000	5.646000	13.157600	30.588000	0.000000	48.772525
727.000000	0.785067	-104.236176	37.613302	39.952219	1.000000	385.398000	6.012000	385.620000	5.900000	13.160200	28.078000	0.000000	48.763657
728.000000	0.728670	56.181342	37.610710	39.962915	1.000000	385.196000	8.410000	385.420000	8.284000	13.161200	27.176000	0.000000	48.795047
729.000000	2.442941	1850.943866	37.610710	39.970694	1.000000	384.104000	20.938000	384.310000	20.760000	13.161600	27.114000	0.000000	48.757175
730.000000	5.719796	2814.386503	37.609089	39.975232	1.000000	382.592000	37.380000	382.826000	37.070000	13.160200	27.050000	14.500000	48.759907
731.000000	9.482507	2981.027829	37.606821	39.980418	1.000000	381.770000	45.536000	382.008000	45.162000	13.161200	26.794000	24.000000	48.774236
732.000000	12.678655	2088.857201	37.609413	39.983336	1.000000	382.476000	35.400000	382.670000	35.096000	13.162200	26.164000	26.500000	48.778333
733.000000	14.325834	1216.588077	37.610062	39.983660	1.000000	382.450000	35.366000	382.664000	35.072000	13.163000	25.132000	17.500000	48.801875
734.000000	16.101688	1564.491929	37.608117	39.985929	1.000000	381.892000	41.196000	382.122000	40.846000	13.163000	25.024000	16.500000	48.851690
735.000000	17.957276	1475.547580	37.610710	39.988522	1.000000	381.714000	42.192000	381.942000	41.836000	13.163000	25.322000	19.000000	48.893655
736.000000	19.658258	1371.591724	37.611682	39.992087	1.000000	381.526000	43.666000	381.748000	43.280000	13.163000	25.184000	19.000000	48.913098
737.000000	21.318726	1421.384976	37.610710	39.997274	1.000000	381.192000	46.522000	381.430000	46.112000	13.162600	25.274000	19.000000	48.930505
738.000000	22.912749	1300.341090	37.612654	39.999867	1.000000	381.246000	44.772000	381.508000	44.374000	13.161400	25.370000	20.000000	48.959159
739.000000	24.239049	1089.574227	37.615571	40.003432	1.000000	381.420000	42.370000	381.652000	42.018000	13.163000	25.198000	20.000000	48.959159
740.000000	25.501497	1078.283147	37.615571	40.005377	1.000000	381.502000	40.756000	381.750000	40.412000	13.163000	25.174000	18.500000	48.993276
741.000000	26.465755	816.901169	37.617191	40.005377	1.000000	382.106000	33.160000	382.378000	32.888000	13.163000	25.290000	18.500000	48.992259
742.000000	27.170392	599.645299	37.612654	40.007322	1.000000	382.588000	27.762000	382.824000	27.516000	13.162800	25.378000	15.000000	49.006586
743.000000	27.666620	525.539514	37.613951	40.011535	1.000000	382.692000	26.508000	382.916000	26.246000	13.162000	25.366000	13.000000	48.984413
744.000000	28.104507	470.403602	37.612006	40.022232	1.000000	382.954000	23.206000	383.190000	22.994000	13.162200	25.192000	12.500000	48.993625
745.000000	28.429924	317.454993	37.607469	40.030984	1.000000	383.518000	17.116000	383.744000	16.968000	13.163000	25.218000	11.500000	48.972819
746.000000	28.548552	228.510766	37.604228	40.041680	1.000000	383.698000	15.268000	383.942000	15.090000	13.163000	25.310000	10.000000	48.970087
747.000000	28.627961	195.351356	37.603580	40.052052	1.000000	384.050000	11.414000	384.268000	11.258000	13.163000	25.396000	8.500000	48.957126
748.000000	28.510629	46.707226	37.592237	40.065990	1.000000	384.386000	7.888000	384.598000	7.792000	13.163000	25.428000	7.500000	48.962591
749.000000	28.266567	-26.713014	37.587700	40.082197	1.000000	384.458000	7.292000	384.680000	7.216000	13.163000	25.486000	6.000000	48.931205
750.000000	28.038710	-13.071877	37.585755	40.092245	1.000000	384.736000	4.456000	384.964000	4.404000	13.163200	25.554000	5.000000	48.894704
751.000000	27.560309	-388.149063	37.578949	40.102618	1.000000	385.752000	-6.554000	385.968000	-6.570000	13.163800	25.704000	5.000000	48.901184
752.000000	26.802192	-436.855048	37.569551	40.120121	1.000000	385.914000	-7.390000	386.120000	-7.388000	13.163000	26.814000	0.000000	48.884476
753.000000	25.861271	-615.703076	37.561125	40.137624	1.000000	386.478000	-13.586000	386.700000	-13.542000	13.163000	26.494000	0.000000	48.877996
754.000000	24.013461	-1410.261344	37.557236	40.154479	1.000000	388.382000	-34.206000	388.580000	-34.004000	13.163200	26.244000	0.000000	48.864683
755.000000	21.757585	-1668.599835	37.550106	40.168093	1.000000	389.002000	-39.670000	389.226000	-39.400000	13.164000	26.144000	0.000000	48.840128
756.000000	18.799340	-2059.263921	37.544596	40.190134	1.000000	388.168000	-27.890000	388.372000	-27.718000	13.163800	26.174000	0.000000	48.858555
757.000000	16.313338	-1688.661604	37.536170	40.215093	1.000000	387.216000	-16.054000	387.428000	-15.960000	13.163000	26.218000	0.000000	48.842861
758.000000	14.428580	-1410.845038	37.530337	40.226437	1.000000	387.292000	-16.502000	387.474000	-16.434000	13.163000	26.184000	0.000000	48.872882
759.000000	12.266050	-1559.341024	37.524179	40.240375	1.000000	387.354000	-17.036000	387.548000	-16.974000	13.162800	26.254000	0.000000	48.884829
760.000000	9.326281	-2284.699489	37.521262	40.250748	1.000000	387.142000	-14.186000	387.358000	-14.138000	13.161600	26.794000	0.000000	48.913482
761.000000	6.164489	-1943.087228	37.515753	40.262417	1.000000	385.956000	-0.162000	386.194000	-0.212000	13.159600	28.878000	0.000000	48.939755
762.000000	3.799708	-1726.536840	37.517697	40.273437	1.000000	385.474000	5.020000	385.704000	4.928000	13.158400	29.252000	0.000000	48.953069
763.000000	1.667646	-1372.450968	37.514457	40.277651	1.000000	385.366000	5.832000	385.586000	5.730000	13.159800	28.562000	0.000000	48.980708
764.000000	1.700382	-52.654953	37.512188	40.279920	1.000000	385.342000	5.972000	385.536000	5.862000	13.159200	29.160000	0.000000	49.001513
765.000000	0.480070	-388.257155	37.513160	40.286078	1.000000	385.316000	5.706000	385.550000	5.600000	13.160400	28.392000	0.000000	49.007993
766.000000	0.064872	-0.771074	37.512188	40.287051	1.000000	385.062000	8.834000	385.244000	8.724000	13.161800	27.366000	0.000000	49.002880
767.000000	2.676632	2711.382123	37.514457	40.287699	1.000000	383.674000	24.318000	383.904000	24.106000	13.161000	27.222000	0.000000	49.009714
768.000000	6.202087	2908.500774	37.514133	40.283809	1.000000	382.346000	38.896000	382.580000	38.578000	13.160800	27.144000	17.500000	48.984809
769.000000	9.959287	2899.740424	37.516401	40.277327	1.000000	381.318000	49.306000	381.568000	48.902000	13.160400	26.710000	23.500000	48.999490
770.000000	13.314579	2530.378266	37.518670	40.268899	1.000000	381.014000	51.030000	381.262000	50.596000	13.162200	25.612000	25.500000	48.996756
771.000000	15.948055	1741.364033	37.524827	40.262092	1.000000	382.080000	36.802000	382.324000	36.490000	13.163000	25.210000	25.500000	49.050311
772.000000	17.457158	1132.791812	37.525800	40.256258	1.000000	382.690000	29.140000	382.940000	28.890000	13.163000	25.196000	18.500000	49.099109
773.000000	18.575697	1019.707967	37.530013	40.249127	1.000000	382.382000	33.082000	382.590000	32.790000	13.162800	25.288000	13.000000	49.143449
774.000000	19.748040	1011.099059	37.535846	40.243617	1.000000	382.208000	34.618000	382.416000	34.314000	13.162200	25.224000	15.000000	49.185409
775.000000	20.918438	990.160813	37.538439	40.238106	1.000000	381.918000	37.410000	382.168000	37.090000	13.163000	25.156000	15.000000	49.184042
776.000000	22.188016	1087.908685	37.542652	40.236162	1.000000	381.620000	39.724000	381.900000	39.386000	13.163000	25.130000	16.000000	49.218156
777.000000	23.455974	1131.364204	37.545245	40.230975	1.000000	380.962000	47.110000	381.206000	46.694000	13.162800	25.106000	17.000000	49.239314
778.000000	24.987118	1337.242601	37.551726	40.227086	1.000000	380.498000	51.256000	380.750000	50.824000	13.162200	25.194000	18.500000	49.224991
779.000000	26.474830	1192.232218	37.553995	40.222224	1.000000	381.118000	43.300000	381.344000	42.928000	13.163000	25.238000	22.000000	49.222257
780.000000	27.494512	783.049569	37.555615	40.218010	1.000000	382.188000	30.350000	382.440000	30.088000	13.162800	25.078000	19.500000	49.214412
781.000000	28.056861	582.578905	37.558532	40.210555	1.000000	382.212000	30.394000	382.456000	30.124000	13.162200	25.272000	13.500000	49.236938
782.000000	28.635740	580.199560	37.562097	40.207313	1.000000	382.546000	26.586000	382.738000	26.334000	13.163000	25.274000	13.000000	49.229093
783.000000	28.965694	263.097784	37.562421	40.204072	1.000000	383.444000	15.650000	383.684000	15.484000	13.163000	25.232000	13.000000	49.251260
784.000000	29.023712	207.053405	37.562745	40.201155	1.000000	383.768000	12.514000	384.000000	12.400000	13.163000	25.154000	9.000000	49.239673
785.000000	28.977363	111.382130	37.562745	40.202451	1.000000	383.968000	11.066000	384.172000	10.946000	13.163000	25.158000	7.500000	49.226718
786.000000	28.879478	25.963670	37.559828	40.200831	1.000000	384.368000	6.396000	384.584000	6.304000	13.163000	25.284000	7.500000	49.233195
787.000000	28.610458	-29.112643	37.554967	40.196617	1.000000	384.452000	6.090000	384.660000	5.956000	13.163200	25.310000	5.500000	49.195338
788.000000	28.336253	6.993808	37.553023	40.197265	1.000000	384.014000	11.542000	384.250000	11.436000	13.164000	25.158000	4.500000	49.196705
789.000000	28.285042	113.242344	37.551726	40.196293	1.000000	383.982000	11.844000	384.198000	11.746000	13.163800	25.048000	7.000000	49.185117
790.000000	28.285690	124.576676	37.545893	40.192727	1.000000	384.108000	10.408000	384.308000	10.284000	13.163000	25.164000	7.000000	49.161582
791.000000	28.185537	62.562311	37.537467	40.194024	1.000000	384.694000	3.918000	384.898000	3.824000	13.163000	25.346000	7.000000	49.156472
792.000000	27.586563	-382.593165	37.536494	40.196941	1.000000	384.330000	9.000000	384.550000	8.908000	13.162800	25.380000	4.500000	49.167052
793.000000	27.649766	232.036522	37.532929	40.201479	1.000000	383.634000	16.772000	383.858000	16.606000	13.162200	25.402000	3.500000	49.131929
794.000000	27.747002	229.830221	37.526448	40.208286	1.000000	383.764000	14.746000	384.002000	14.634000	13.163200	25.318000	8.500000	49.129193
795.000000	27.650090	52.547435	37.519966	40.216713	1.000000	383.896000	13.502000	384.128000	13.384000	13.163800	25.254000	8.500000	49.127825
796.000000	27.650090	134.288727	37.514133	40.218658	1.000000	383.886000	13.480000	384.120000	13.368000	13.163000	25.214000	7.500000	49.106019
797.000000	27.651063	134.699704	37.510244	40.224493	1.000000	383.930000	13.008000	384.142000	12.888000	13.163000	25.314000	7.500000	49.096805
798.000000	27.650738	138.982524	37.506030	40.226113	1.000000	383.897273	13.578182	384.119091	13.449091	13.163182	25.311818	7.500000	49.095437
799.000000	27.692874	242.981507	37.496956	40.232596	1.000000	383.373333	19.746667	383.600000	19.576667	13.163889	25.235556	7.500000	49.099541
800.000000	27.943419	361.494500	37.491771	40.241996	1.000000	382.816000	25.860000	383.020000	25.646000	13.162800	25.256000	8.500000	49.102277
801.000000	28.345652	556.773826	37.489826	40.248803	1.000000	380.914000	47.654000	381.146000	47.246000	13.162000	25.160000	10.500000	49.114227
802.000000	29.531932	1129.417466	37.486261	40.258527	1.000000	380.126000	55.092000	380.398000	54.620000	13.162000	25.180000	17.500000	49.109118
803.000000	30.831979	1097.123245	37.480752	40.269872	1.000000	380.428182	50.194545	380.664545	49.772727	13.162000	25.227273	21.500000	49.107750
804.000000	31.954408	944.369216	37.474594	40.283485	1.000000	381.225556	39.638889	381.447778	39.307778	13.162111	25.062222	21.000000	49.116964
805.000000	32.693078	741.800369	37.471353	40.292561	1.000000	381.864000	31.844000	382.104000	31.574000	13.163000	25.004000	17.000000	49.121069
806.000000	32.844118	374.191549	37.466492	40.302609	1.000000	381.650000	35.434000	381.892000	35.120000	13.162800	25.324000	16.500000	49.121069
807.000000	33.452492	625.169184	37.461631	40.315575	1.000000	381.572000	35.572000	381.820000	35.246000	13.162000	25.228000	14.500000	49.155187
808.000000	33.964602	533.131788	37.453529	40.330485	1.000000	382.032000	29.834000	382.270000	29.556000	13.162200	25.092000	15.500000	49.148710
809.000000	34.288398	270.170926	37.450936	40.339561	1.000000	383.228000	15.594000	383.460000	15.444000	13.162800	25.074000	14.000000	49.173615
810.000000	34.237836	132.060795	37.446723	40.348312	1.000000	383.404000	14.006000	383.650000	13.866000	13.162200	25.174000	9.000000	49.173615
811.000000	34.144489	119.666574	37.441538	40.355768	1.000000	383.586000	12.198000	383.842000	12.088000	13.163000	25.308000	8.500000	49.176352
812.000000	33.996366	84.776734	37.434732	40.367761	1.000000	383.372000	15.600000	383.580000	15.458000	13.163000	25.136000	7.500000	49.184197
813.000000	33.949368	108.591808	37.429222	40.376836	1.000000	383.872000	9.874000	384.104000	9.768000	13.163000	25.124000	8.500000	49.180457
814.000000	33.637565	-127.843340	37.423713	40.380402	1.000000	384.622000	1.736000	384.818000	1.560000	13.163200	25.106000	8.000000	49.143968
815.000000	33.111517	-250.181196	37.422417	40.382347	1.000000	384.612000	2.844000	384.804000	2.400000	13.163800	25.046000	4.500000	49.132017
816.000000	32.877502	147.872620	37.415287	40.388181	1.000000	383.790000	11.838000	384.024000	11.708000	13.163200	25.322000	2.500000	49.119063
817.000000	32.635060	-136.252852	37.409129	40.390450	1.000000	384.658000	2.166000	384.864000	2.080000	13.163800	25.214000	8.500000	49.108847
818.000000	32.131053	-210.662978	37.405564	40.391423	1.000000	384.610000	3.544000	384.798000	3.462000	13.163000	25.214000	4.500000	49.091787
819.000000	31.800126	14.218362	37.402323	40.391423	1.000000	383.954000	11.410000	384.144000	11.284000	13.163200	25.146000	3.500000	49.086679
820.000000	31.661403	87.523795	37.396490	40.393691	1.000000	384.174000	8.198000	384.402000	8.100000	13.163800	25.134000	7.500000	49.058034
821.000000	31.552823	32.279748	37.390656	40.394988	1.000000	385.378000	-5.934000	385.592000	-5.970000	13.163000	25.138000	7.500000	49.081571
822.000000	30.768451	-469.585124	37.387092	40.398229	1.000000	385.384000	-4.614000	385.576000	-4.616000	13.163000	25.072000	3.000000	49.060772
823.000000	30.145492	-126.438152	37.383527	40.397257	1.000000	384.270000	8.880000	384.480000	8.794000	13.163200	25.038000	0.000000	49.043711
824.000000	29.950696	28.126711	37.380610	40.401147	1.000000	384.060000	10.860000	384.306000	10.784000	13.163800	25.204000	5.500000	49.024281
825.000000	29.851515	100.480407	37.377369	40.407953	1.000000	383.978000	11.660000	384.206000	11.556000	13.163000	25.224000	6.500000	49.049187
826.000000	29.850867	186.764086	37.374452	40.410547	1.000000	383.834000	12.976000	384.058000	12.858000	13.163000	25.112000	7.500000	49.036234
827.000000	29.850543	131.866122	37.372832	40.412491	1.000000	383.996000	11.034000	384.232000	10.934000	13.163200	25.244000	8.500000	49.025650
828.000000	29.701447	23.389652	37.370563	40.418002	1.000000	384.196000	8.612000	384.416000	8.544000	13.163800	25.262000	6.500000	49.038973
829.000000	29.555593	66.693718	37.366026	40.422864	1.000000	383.890000	12.456000	384.114000	12.350000	13.163200	25.266000	6.500000	49.026019
830.000000	29.505030	148.759467	37.366026	40.425133	1.000000	383.830000	13.312000	384.060000	13.192000	13.164000	25.216000	6.500000	49.032496
831.000000	29.408767	11.103584	37.365054	40.430967	1.000000	384.560000	4.586000	384.748000	4.514000	13.163800	25.070000	8.000000	49.026019
832.000000	29.025332	-223.893366	37.363433	40.434208	1.000000	385.214000	-2.648000	385.398000	-2.798000	13.163200	25.044000	5.000000	49.031497
833.000000	28.441916	-286.651236	37.363433	40.441339	1.000000	385.146000	-0.490000	385.340000	-0.966000	13.163800	25.104000	2.000000	49.028758
834.000000	27.879567	-261.595648	37.363433	40.449119	1.000000	385.378000	-3.396000	385.560000	-3.410000	13.162800	25.354000	2.000000	49.018544
835.000000	27.153862	-431.558570	37.363433	40.452360	1.000000	386.078000	-11.244000	386.300000	-11.204000	13.162000	26.248000	2.000000	49.027760
836.000000	26.058660	-766.641902	37.363757	40.454953	1.000000	387.614000	-28.658000	387.800000	-28.488000	13.162400	26.062000	0.000000	49.027760
837.000000	23.828713	-1509.402789	37.363757	40.457870	1.000000	388.016000	-30.992000	388.194000	-30.800000	13.163800	25.990000	0.000000	49.030499
838.000000	21.770225	-1310.471355	37.364406	40.461112	1.000000	387.146000	-19.498000	387.362000	-19.392000	13.162400	26.600000	0.000000	49.033239
839.000000	20.030348	-1159.100152	37.366350	40.462084	1.000000	386.184000	-7.284000	386.422000	-7.266000	13.160600	28.268000	0.000000	49.033239
840.000000	19.260239	-374.961912	37.363757	40.463705	1.000000	384.786000	8.478000	385.012000	8.350000	13.163000	25.168000	0.000000	49.058146
841.000000	19.407065	436.227557	37.364730	40.465001	1.000000	383.396000	23.732000	383.610000	23.526000	13.163000	25.122000	2.500000	49.071471
842.000000	20.121750	669.230333	37.366350	40.464353	1.000000	383.198000	24.496000	383.428000	24.272000	13.163200	25.112000	10.500000	49.102854
843.000000	20.922651	793.280755	37.366026	40.464029	1.000000	383.300000	22.298000	383.528000	22.104000	13.164000	25.048000	11.500000	49.117175
844.000000	21.414990	470.684797	37.367646	40.464677	1.000000	383.342000	21.424000	383.568000	21.250000	13.164000	25.106000	12.500000	49.117175
845.000000	21.976366	585.499011	37.368295	40.464353	1.000000	383.034000	24.438000	383.284000	24.248000	13.163800	25.212000	9.500000	49.104224
846.000000	22.562375	564.106535	37.372508	40.457870	1.000000	383.006000	23.982000	383.250000	23.782000	13.163000	25.210000	11.000000	49.139716
847.000000	23.124400	551.928614	37.373480	40.453332	1.000000	382.676000	27.746000	382.902000	27.496000	13.163000	25.138000	11.000000	49.111074
848.000000	23.946044	855.684504	37.377369	40.449767	1.000000	382.018000	34.950000	382.262000	34.660000	13.163000	25.038000	11.500000	49.170102
849.000000	24.881131	856.246895	37.378665	40.447498	1.000000	381.850000	36.092000	382.072000	35.802000	13.163000	25.130000	15.500000	49.141086
850.000000	25.808439	823.109098	37.380286	40.443608	1.000000	382.066000	32.578000	382.294000	32.308000	13.163000	25.084000	16.000000	49.163626
851.000000	26.491360	484.528258	37.382554	40.438422	1.000000	382.958000	21.758000	383.180000	21.570000	13.163000	25.212000	15.500000	49.149306
852.000000	26.674164	221.762080	37.385147	40.436802	1.000000	383.080000	20.620000	383.310000	20.438000	13.163000	25.174000	11.000000	49.188532
853.000000	26.967169	362.143412	37.386767	40.433884	1.000000	383.148000	19.744000	383.376000	19.554000	13.163200	25.150000	9.000000	49.187162
854.000000	27.214473	302.616534	37.390981	40.431940	1.000000	383.288000	18.048000	383.510000	17.862000	13.163800	25.166000	10.000000	49.189902
855.000000	27.374912	249.384107	37.393897	40.428698	1.000000	383.284000	18.362000	383.512000	18.184000	13.163200	25.206000	9.000000	49.198124
856.000000	27.594017	360.412979	37.394870	40.427402	1.000000	382.794000	24.070000	383.022000	23.858000	13.164000	25.100000	8.500000	49.184798
857.000000	27.942771	429.933108	37.395194	40.426429	1.000000	382.664000	24.828000	382.916000	24.602000	13.163800	25.078000	11.000000	49.198124
858.000000	28.327501	447.929607	37.395518	40.421891	1.000000	382.708000	24.336000	382.928000	24.100000	13.163000	25.132000	11.000000	49.193020
859.000000	28.694082	325.112156	37.396814	40.411843	1.000000	383.288000	16.902000	383.516000	16.718000	13.163000	25.068000	12.000000	49.199495
860.000000	28.821461	212.980136	37.395518	40.406009	1.000000	383.286000	17.414000	383.538000	17.224000	13.163000	25.124000	9.000000	49.207339
861.000000	28.871051	203.441128	37.395842	40.402119	1.000000	383.774000	11.696000	383.998000	11.568000	13.163000	25.208000	8.500000	49.217925
862.000000	28.854521	30.830511	37.396490	40.397581	1.000000	385.076000	-3.286000	385.308000	-3.322000	13.163200	25.174000	8.500000	49.208710
863.000000	28.078253	-451.231205	37.394221	40.389154	1.000000	385.382000	-5.476000	385.588000	-5.498000	13.164000	25.212000	2.500000	49.215563
864.000000	27.301985	-432.963758	37.393249	40.384616	1.000000	385.258000	-3.506000	385.486000	-3.534000	13.163800	25.150000	0.000000	49.232623
865.000000	26.779503	-206.598741	37.393573	40.378781	1.000000	385.400000	-4.720000	385.622000	-4.736000	13.163200	25.190000	0.000000	49.211829
866.000000	26.029813	-423.992172	37.390332	40.369705	1.000000	385.506000	-5.336000	385.738000	-5.336000	13.164000	25.208000	0.000000	49.224778
867.000000	25.296653	-413.745107	37.389684	40.358361	1.000000	385.400000	-3.296000	385.632000	-3.408000	13.163800	25.282000	0.000000	49.233993
868.000000	24.563169	-408.556720	37.389684	40.344747	1.000000	384.842000	4.002000	385.046000	3.518000	13.163000	25.274000	0.000000	49.228890
869.000000	24.563169	337.917357	37.386767	40.335347	1.000000	383.326000	20.710000	383.558000	20.524000	13.163000	25.188000	0.000000	49.214571
870.000000	25.001380	506.115407	37.387092	40.324975	1.000000	383.056000	22.618000	383.332000	22.420000	13.163000	25.122000	10.000000	49.215941
871.000000	25.442831	416.998124	37.389036	40.316547	1.000000	383.304000	19.232000	383.562000	19.078000	13.163200	25.192000	11.000000	49.224166
872.000000	25.735836	361.472869	37.389684	40.304554	1.000000	383.162000	20.834000	383.402000	20.658000	13.164000	25.126000	10.000000	49.218683
873.000000	26.080052	432.182670	37.389684	40.295803	1.000000	382.708000	25.878000	382.920000	25.664000	13.163800	25.150000	10.000000	49.208477
874.000000	26.633325	637.931127	37.389684	40.287375	1.000000	382.260000	30.356000	382.520000	30.096000	13.162800	25.170000	11.000000	49.224167
875.000000	27.348334	678.574671	37.390008	40.276354	1.000000	382.680000	24.304000	382.932000	24.072000	13.162200	25.236000	14.000000	49.225538
876.000000	27.667593	390.825331	37.391953	40.259499	1.000000	382.340000	28.578000	382.568000	28.298000	13.163000	25.196000	12.500000	49.225537
877.000000	28.276939	638.363735	37.393897	40.244913	1.000000	382.150000	30.184000	382.402000	29.922000	13.163000	25.240000	12.500000	49.229651
878.000000	28.861328	559.542518	37.397138	40.234865	1.000000	383.104000	18.400000	383.328000	18.222000	13.163200	25.176000	14.000000	49.240238
879.000000	28.917725	195.805595	37.397138	40.225789	1.000000	383.564000	13.284000	383.804000	13.154000	13.163800	25.212000	10.500000	49.268875
880.000000	28.968287	175.018777	37.400055	40.210555	1.000000	383.558000	13.626000	383.800000	13.486000	13.163000	25.086000	8.000000	49.275730
881.000000	29.017554	187.239955	37.402323	40.201803	1.000000	383.658000	12.784000	383.896000	12.618000	13.163200	25.052000	8.000000	49.262783
882.000000	28.950137	57.955035	37.401999	40.194024	1.000000	384.480000	3.360000	384.676000	3.416000	13.163800	25.120000	8.000000	49.290048
883.000000	28.439647	-251.132400	37.403620	40.184300	1.000000	384.520000	3.141818	384.743636	3.701818	13.163182	25.067273	5.000000	49.261412
884.000000	27.993334	-80.780339	37.403296	40.174900	1.000000	383.431000	17.286000	383.668000	17.127000	13.163900	25.199000	2.500000	49.271999
885.000000	28.178730	262.427241	37.403944	40.161934	1.000000	383.473000	15.869000	383.683000	15.724000	13.163000	25.282000	6.500000	49.277102
886.000000	28.096404	-0.100907	37.403296	40.153183	1.000000	384.613000	2.367000	384.820000	2.277000	13.163000	25.307000	9.000000	49.277485
887.000000	27.537296	-283.559822	37.403296	40.147348	1.000000	384.882000	0.325000	385.068000	0.314000	13.163000	25.374000	4.500000	49.271012
888.000000	27.124691	-138.328207	37.402648	40.140217	1.000000	384.608000	3.563000	384.847000	3.450000	13.163100	25.414000	2.000000	49.276114
889.000000	26.756815	-128.708071	37.401027	40.134383	1.000000	384.263000	8.044000	384.493000	7.899000	13.163900	25.444000	3.500000	49.265910
890.000000	26.937674	437.482120	37.399731	40.132438	1.000000	382.934000	23.011000	383.165000	22.818000	13.163000	25.384000	4.000000	49.254335
891.000000	27.312033	418.642035	37.400379	40.128548	1.000000	382.888000	22.799000	383.126000	22.582000	13.163000	25.327000	11.000000	49.242376
892.000000	27.641339	389.722181	37.397786	40.124659	1.000000	383.016000	20.923000	383.238000	20.737000	13.163000	25.291000	10.500000	49.254335
893.000000	27.894153	307.699680	37.396166	40.118176	1.000000	383.530000	14.587000	383.769000	14.437000	13.163000	25.220000	10.500000	49.254335
894.000000	27.846831	126.696455	37.394545	40.113962	1.000000	383.599000	14.240000	383.828000	14.090000	13.163000	25.303000	9.000000	49.257079
895.000000	27.941474	230.262829	37.395194	40.112342	1.000000	383.443000	15.793000	383.668000	15.645000	13.163000	25.243000	7.000000	49.263938
896.000000	27.993009	128.989278	37.391305	40.107480	1.000000	383.765000	11.651000	384.035000	11.525000	13.163000	25.277000	8.500000	49.251977
897.000000	27.972590	139.609806	37.389360	40.106507	1.000000	384.027000	8.618000	384.289000	8.524000	13.163100	25.320000	7.500000	49.257465
898.000000	27.683475	-74.986640	37.386767	40.103266	1.000000	384.390000	5.229000	384.585000	5.102000	13.164000	25.142000	6.500000	49.246876
899.000000	27.341204	-164.810602	37.384175	40.101321	1.000000	384.696000	2.069000	384.934000	1.973000	13.163900	25.165000	4.500000	49.266682
900.000000	26.879008	-276.814918	37.384175	40.099700	1.000000	384.930000	-0.097000	385.150000	-0.162000	13.163100	25.211000	3.000000	49.257465
901.000000	26.455059	-78.640130	37.383851	40.094190	1.000000	384.112000	9.730000	384.332000	9.620000	13.163900	25.208000	1.500000	49.252364
902.000000	26.331569	52.677217	37.382554	40.088680	1.000000	384.034000	10.510000	384.253000	10.399000	13.163000	25.107000	6.000000	49.239419
903.000000	26.282627	84.582061	37.381258	40.088356	1.000000	383.960000	11.264000	384.171000	11.141000	13.163000	25.164000	6.000000	49.231574
904.000000	26.281979	164.008901	37.380934	40.088680	1.000000	383.798000	12.915000	384.022000	12.772000	13.163100	25.117000	6.500000	49.252364
905.000000	26.281979	140.799478	37.379314	40.086411	1.000000	383.968000	10.378000	384.226000	10.297000	13.163900	25.186000	7.500000	49.232946
906.000000	26.192197	75.518922	37.377693	40.082521	1.000000	384.064000	9.591000	384.300000	9.499000	13.163100	25.246000	6.000000	49.239807
907.000000	26.046019	-2.500537	37.373804	40.081873	1.000000	384.276000	7.590000	384.477000	7.484000	13.164000	25.287000	6.000000	49.230590
908.000000	25.843444	2.646097	37.373804	40.079604	1.000000	384.257000	7.959000	384.466000	7.885000	13.163900	25.177000	5.000000	49.226862
909.000000	25.531640	-168.831603	37.374452	40.077335	1.000000	384.300000	7.681000	384.503000	7.565000	13.163000	25.240000	5.000000	49.226862
910.000000	25.639572	287.475250	37.373156	40.070528	1.000000	383.324000	18.781000	383.552000	18.613000	13.163000	25.236000	4.000000	49.246669
911.000000	26.005504	456.560140	37.374452	40.064694	1.000000	383.531000	15.565000	383.742000	15.422000	13.163000	25.190000	9.000000	49.220389
912.000000	26.040509	141.621433	37.371211	40.061777	1.000000	384.354000	5.758000	384.572000	5.680000	13.163100	25.117000	10.500000	49.230979
913.000000	25.639248	-233.686447	37.372184	40.057563	1.000000	385.244000	-3.971000	385.444000	-4.026000	13.163800	25.379000	5.500000	49.240196
914.000000	24.903171	-405.378833	37.369591	40.054646	1.000000	385.616000	-7.556000	385.820000	-7.565000	13.162100	26.375000	0.000000	49.211562
915.000000	23.979104	-593.220066	37.372832	40.049135	1.000000	385.505000	-5.261000	385.739000	-5.255000	13.163000	26.468000	0.000000	49.212934
916.000000	22.740641	-867.058810	37.371860	40.042653	1.000000	386.338000	-14.294000	386.519000	-14.244000	13.163100	25.973000	0.000000	49.235096
917.000000	21.577698	-364.714847	37.369915	40.036818	1.000000	385.113000	0.942000	385.307000	0.885000	13.164000	24.928000	0.000000	49.240587
918.000000	21.464904	337.268445	37.372832	40.030984	1.000000	383.177000	23.026000	383.405000	22.820000	13.163900	25.004000	0.000000	49.257649
919.000000	22.132592	628.911246	37.372184	40.021908	1.000000	383.292000	20.317000	383.500000	20.144000	13.163000	25.053000	10.000000	49.279811
920.000000	22.613262	538.128412	37.372832	40.014453	1.000000	382.909000	24.241000	383.101000	24.036000	13.163000	25.200000	9.000000	49.248432
921.000000	23.243352	636.546781	37.372832	40.008942	1.000000	382.540000	28.092000	382.751000	27.846000	13.163000	25.432000	11.000000	49.276084
922.000000	23.930162	633.561784	37.372508	40.004729	1.000000	382.631000	25.947000	382.852000	25.745000	13.163000	25.103000	12.500000	49.272358
923.000000	24.227056	292.580026	37.373156	40.002136	1.000000	383.400000	16.805000	383.632000	16.669000	13.163100	25.215000	12.500000	49.306482
924.000000	24.441300	310.792828	37.375425	39.990467	1.000000	382.970000	21.946000	383.218000	21.758000	13.163900	25.186000	8.500000	49.305109
925.000000	24.864277	416.846711	37.374776	39.983984	1.000000	383.181000	18.868000	383.408000	18.701000	13.163100	25.323000	10.500000	49.307855
926.000000	25.059397	244.668679	37.376397	39.977825	1.000000	383.463000	15.803000	383.666000	15.662000	13.163900	25.264000	10.000000	49.309228
927.000000	25.204927	221.783710	37.376073	39.965832	1.000000	383.492000	15.843000	383.725000	15.694000	13.162900	25.323000	8.000000	49.322171
928.000000	25.305404	220.940125	37.377369	39.957081	1.000000	383.566000	14.457000	383.822000	14.323000	13.162100	25.525000	8.000000	49.313347
929.000000	25.450610	253.061276	37.380610	39.947681	1.000000	384.097000	8.065000	384.313000	7.986000	13.163000	25.452000	8.000000	49.322564
930.000000	24.920674	-382.701257	37.380610	39.939901	1.000000	384.300000	7.122000	384.482000	7.049000	13.163100	25.166000	8.500000	49.331782
931.000000	24.813714	89.146076	37.382878	39.928881	1.000000	383.940000	11.164000	384.144000	11.064000	13.163900	24.877000	3.000000	49.321586
932.000000	24.766717	92.347375	37.384499	39.917536	1.000000	383.950000	10.799000	384.190000	10.699000	13.163000	25.040000	6.000000	49.323937
933.000000	24.717126	103.119316	37.386119	39.911702	1.000000	384.055000	9.469000	384.294000	9.372000	13.163000	25.131000	6.000000	49.320212
934.000000	24.522006	-68.371445	37.383851	39.905543	1.000000	384.198000	8.052000	384.426000	7.980000	13.163100	25.148000	6.000000	49.330803
935.000000	24.328182	18.609334	37.383851	39.896467	1.000000	384.239000	7.907000	384.446000	7.816000	13.163900	25.225000	4.500000	49.337670
936.000000	24.229001	100.134320	37.385471	39.887716	1.000000	383.929000	11.644000	384.114000	11.544000	13.163000	25.269000	5.000000	49.325705
937.000000	24.278916	131.022536	37.386767	39.881557	1.000000	383.592000	15.397000	383.822000	15.289000	13.163000	25.267000	6.500000	49.321586
938.000000	24.441300	309.300330	37.388064	39.878316	1.000000	383.103000	20.843000	383.329000	20.668000	13.163000	25.333000	7.000000	49.302568
939.000000	24.815983	421.237684	37.390008	39.873778	1.000000	383.475000	15.706000	383.672000	15.581000	13.163000	25.362000	9.500000	49.295701
940.000000	24.910302	168.832481	37.388712	39.867943	1.000000	384.130000	7.649000	384.387000	7.568000	13.163000	25.382000	10.000000	49.307666
941.000000	24.669481	-26.237412	37.390008	39.865674	1.000000	383.995000	10.228000	384.221000	10.133000	13.163100	25.400000	5.000000	49.316884
942.000000	24.667860	186.526152	37.390008	39.862433	1.000000	384.280000	6.682000	384.479000	6.539000	13.164000	25.380000	4.500000	49.327475
943.000000	24.211499	-219.483236	37.390332	39.861785	1.000000	383.191000	20.274000	383.468000	20.103000	13.163900	25.211000	5.000000	49.332573
944.000000	24.608222	406.939985	37.390656	39.853357	1.000000	383.065000	20.625000	383.315000	20.442000	13.162900	25.302000	9.000000	49.305315
945.000000	24.976746	460.864592	37.389684	39.848495	1.000000	382.890000	22.250000	383.140000	22.061000	13.162200	25.266000	10.000000	49.326499
946.000000	25.409447	399.066517	37.388064	39.842661	1.000000	384.985000	-3.334000	385.228000	-3.336000	13.163900	25.606000	11.500000	49.326499
947.000000	24.707403	-417.939053	37.391305	39.841688	1.000000	385.230000	-4.514000	385.416000	-4.531000	13.162900	25.861000	0.000000	49.327873
948.000000	23.929838	-461.089140	37.391305	39.836826	1.000000	385.666000	-8.722000	385.898000	-8.691000	13.162200	26.784000	0.000000	49.344935
949.000000	22.010398	-1683.321887	37.394870	39.830992	1.000000	387.906000	-33.234000	388.071000	-33.020000	13.163900	26.118000	0.000000	49.349057
950.000000	19.805085	-1412.358317	37.396490	39.827102	1.000000	387.372000	-25.600000	387.579000	-25.438000	13.163000	26.267000	0.000000	49.347683
951.000000	17.325890	-1963.235474	37.396814	39.822564	1.000000	387.796000	-29.076000	387.975000	-28.896000	13.163100	26.139000	0.000000	49.358275
952.000000	14.155022	-2414.322801	37.395842	39.816082	1.000000	388.105000	-31.470000	388.276000	-31.299000	13.163800	26.042000	0.000000	49.384555
953.000000	10.396850	-2714.752357	37.396814	39.803440	1.000000	387.042000	-17.945000	387.226000	-17.865000	13.161800	26.238000	0.000000	49.406714
954.000000	7.081101	-2322.055905	37.397786	39.797606	1.000000	385.892000	-4.558000	386.109000	-4.575000	13.159700	28.110000	0.000000	49.435741
955.000000	4.166288	-2182.769227	37.399083	39.791123	1.000000	385.080000	4.692000	385.271000	4.608000	13.157300	30.339000	0.000000	49.484177
956.000000	1.070617	-2096.490620	37.401027	39.784640	1.000000	384.900000	5.941000	385.101000	5.822000	13.160100	28.511000	0.000000	49.512803
957.000000	0.034080	-358.748202	37.404268	39.774916	1.000000	384.908000	5.561000	385.116000	5.453000	13.160900	28.359000	0.000000	49.540454
958.000000	-0.001573	-3.408505	37.406537	39.763896	1.000000	384.959000	4.719000	385.152000	4.632000	13.160100	28.381000	0.000000	49.576923
959.000000	0.346532	604.230949	37.408481	39.756441	1.000000	384.701000	7.543000	384.920000	7.476000	13.161000	27.050000	0.000000	49.590261
960.000000	2.335982	1906.901835	37.410102	39.746068	1.000000	383.952000	15.849000	384.161000	15.706000	13.161000	27.144000	0.000000	49.588887
961.000000	5.126656	2527.544673	37.417231	39.726620	1.000000	382.657000	30.340000	382.859000	30.068000	13.161000	27.178000	10.500000	49.600852
962.000000	8.535104	2816.311616	37.421769	39.713979	1.000000	381.277000	45.131000	381.501000	44.743000	13.161000	27.150000	19.000000	49.577725
963.000000	12.005134	2643.354254	37.424037	39.702958	1.000000	380.498000	52.656000	380.758000	52.203000	13.161300	26.867000	25.000000	49.565760
964.000000	15.007134	2040.513134	37.428574	39.688048	1.000000	381.153000	43.282000	381.408000	42.906000	13.163900	25.143000	26.500000	49.593411
965.000000	17.094792	1662.780640	37.435704	39.674758	1.000000	382.276000	28.985000	382.490000	28.727000	13.163000	25.241000	20.500000	49.609097
966.000000	18.272321	1129.720292	37.442186	39.653041	1.000000	381.571000	37.468000	381.821000	37.137000	13.163000	25.078000	12.500000	49.674587
967.000000	19.686457	1168.546903	37.448019	39.640076	1.000000	381.326000	39.978000	381.572000	39.646000	13.163000	25.171000	16.500000	49.726735
968.000000	20.964463	858.885806	37.453529	39.626786	1.000000	382.275000	27.957000	382.488000	27.700000	13.163100	25.330000	17.500000	49.754385
969.000000	21.743323	732.823747	37.459038	39.611228	1.000000	382.123000	29.701000	382.364000	29.459000	13.164000	25.061000	12.500000	49.785752
970.000000	22.721842	922.068255	37.467140	39.592428	1.000000	381.025000	42.321000	381.271000	41.958000	13.163900	25.078000	12.500000	49.776940
971.000000	24.142785	1304.970002	37.470057	39.580111	1.000000	379.787000	56.283000	380.000000	55.800000	13.163000	25.163000	17.000000	49.792624
972.000000	25.837286	1402.458349	37.474594	39.569414	1.000000	379.683000	55.793000	379.924000	55.295000	13.163000	25.253000	22.500000	49.793998
973.000000	27.216741	1062.557831	37.478807	39.558718	1.000000	380.722000	42.518000	380.971000	42.142000	13.163000	25.022000	23.000000	49.800465
974.000000	28.201419	836.022456	37.483993	39.538946	1.000000	381.906000	28.463000	382.143000	28.228000	13.162900	25.151000	19.000000	49.791654
975.000000	28.574805	370.233184	37.486585	39.528897	1.000000	383.470000	10.267000	383.679000	10.164000	13.162200	25.316000	14.000000	49.803215
976.000000	28.431544	60.139706	37.489502	39.518525	1.000000	383.282000	14.018000	383.488000	13.886000	13.163900	25.114000	6.500000	49.820272
977.000000	28.430896	151.830984	37.492743	39.512042	1.000000	383.376000	12.843000	383.629000	12.705000	13.163100	25.237000	7.500000	49.841453
978.000000	28.429275	142.702954	37.494039	39.499725	1.000000	384.868000	-4.633000	385.059000	-4.663000	13.164000	25.207000	7.500000	49.823021
979.000000	27.683799	-431.428860	37.495660	39.490001	1.000000	384.764000	-1.578000	384.968000	-1.614000	13.164000	25.191000	1.500000	49.790685
980.000000	27.311709	-36.311532	37.496308	39.482222	1.000000	383.995000	7.528000	384.232000	7.437000	13.163900	25.295000	0.000000	49.815585
981.000000	27.113995	-16.487566	37.495336	39.474767	1.000000	384.055000	7.334000	384.264000	7.232000	13.163100	25.326000	5.000000	49.789310
982.000000	26.854051	-62.945256	37.494039	39.464394	1.000000	384.216000	5.448000	384.419000	5.332000	13.164000	25.216000	5.000000	49.762066
983.000000	26.508215	-134.047787	37.494039	39.452077	1.000000	384.465000	2.601000	384.693000	2.524000	13.164000	25.326000	4.500000	49.755599
984.000000	26.094637	-182.234937	37.494039	39.444622	1.000000	384.605000	1.417000	384.817000	1.365000	13.164000	25.015000	3.000000	49.759724
985.000000	25.632766	-207.679655	37.491123	39.439760	1.000000	384.712000	0.523000	384.940000	0.460000	13.164000	25.025000	2.500000	49.728355
986.000000	25.052266	-391.218859	37.490474	39.430360	1.000000	385.380000	-6.897000	385.587000	-6.889000	13.163900	25.557000	2.500000	49.720513
987.000000	24.203396	-543.930388	37.489178	39.420636	1.000000	386.256000	-16.536000	386.440000	-16.467000	13.163100	25.790000	0.000000	49.711296
988.000000	22.410039	-366.271363	37.487234	39.414153	1.000000	385.208000	-2.781000	385.428000	-2.869000	13.164000	24.919000	0.000000	49.686801
989.000000	21.725173	-382.376982	37.486909	39.407347	1.000000	384.798000	2.390000	385.021000	1.820000	13.164000	25.179000	0.000000	49.688177
990.000000	21.831160	570.292832	37.484965	39.402160	1.000000	382.931000	23.322000	383.178000	23.120000	13.163900	25.153000	0.000000	49.688177
991.000000	22.181210	296.451869	37.483345	39.394705	1.000000	383.260000	18.547000	383.482000	18.413000	13.163000	25.039000	11.000000	49.698769
992.000000	22.636275	494.889224	37.482696	39.389195	1.000000	382.984000	21.325000	383.222000	21.162000	13.163000	25.372000	8.000000	49.692302
993.000000	22.959422	260.350722	37.480104	39.385305	1.000000	383.773000	11.414000	383.991000	11.315000	13.163100	25.216000	10.500000	49.704270
994.000000	22.894274	47.247986	37.481076	39.382064	1.000000	384.067000	8.522000	384.267000	8.433000	13.163900	25.272000	6.000000	49.702895
995.000000	22.767867	46.426031	37.478807	39.380767	1.000000	384.005000	9.325000	384.205000	9.240000	13.163000	25.289000	5.000000	49.714863
996.000000	22.764626	158.774343	37.478807	39.373312	1.000000	383.695000	13.019000	383.902000	12.893000	13.163000	25.284000	5.500000	49.725047
997.000000	22.814865	177.809099	37.478807	39.367478	1.000000	383.737000	11.930000	384.000000	11.839000	13.163100	25.324000	6.500000	49.712113
998.000000	22.861538	153.885872	37.478807	39.361643	1.000000	383.659000	13.330000	383.864000	13.222000	13.164000	25.371000	6.500000	49.707021
999.000000	22.911453	166.085420	37.479131	39.356457	1.000000	383.132000	19.414000	383.377000	19.231000	13.163900	25.473000	6.500000	49.713899
1000.000000	23.365221	539.599280	37.475891	39.350623	1.000000	382.503000	26.500000	382.702000	26.288000	13.163000	25.483000	7.500000	49.711147
1001.000000	24.091574	690.428138	37.475891	39.348678	1.000000	382.426000	26.608000	382.620000	26.386000	13.163000	25.305000	12.500000	49.704681
1002.000000	24.586182	392.707177	37.475891	39.346733	1.000000	383.118000	17.755000	383.350000	17.603000	13.163000	25.102000	13.000000	49.674686
1003.000000	24.810797	312.869347	37.476539	39.343168	1.000000	383.162000	17.145000	383.412000	16.972000	13.163000	25.279000	8.500000	49.710183
1004.000000	25.073983	390.544136	37.475891	39.338306	1.000000	382.949000	19.660000	383.200000	19.466000	13.163100	25.076000	9.000000	49.706468
1005.000000	25.354671	259.355724	37.476863	39.336361	1.000000	383.314000	15.031000	383.570000	14.893000	13.164000	24.953000	10.000000	49.712935
1006.000000	25.401668	192.063535	37.474270	39.331499	1.000000	383.485000	13.345000	383.705000	13.229000	13.164000	24.988000	7.500000	49.700001
1007.000000	25.355319	60.312749	37.473622	39.327933	1.000000	384.005000	7.352000	384.223000	7.276000	13.164000	25.057000	7.500000	49.698625
1008.000000	24.952113	-350.230599	37.472974	39.319830	1.000000	384.998000	-3.484000	385.201000	-3.527000	13.163900	25.030000	6.000000	49.685692
1009.000000	24.238401	-408.232445	37.472974	39.317237	1.000000	384.615000	1.771000	384.846000	1.702000	13.163100	25.020000	0.000000	49.701377
1010.000000	23.849132	-144.965020	37.469733	39.316264	1.000000	384.598000	2.169000	384.832000	2.115000	13.164100	24.934000	2.000000	49.681978
1011.000000	23.456299	-173.393060	37.468437	39.312051	1.000000	384.850000	0.000000	385.035000	0.000000	13.164900	24.974000	2.500000	49.684730
1012.000000	22.871910	-322.451109	37.466492	39.308485	1.000000	384.828000	0.286000	385.056000	0.276000	13.164000	25.027000	2.000000	49.680602
1013.000000	22.433051	-180.440620	37.464548	39.304596	1.000000	384.646000	2.574000	384.855000	2.573000	13.164000	25.150000	1.000000	49.669044
1014.000000	22.042162	-187.293615	37.463251	39.299085	1.000000	384.821000	-0.253000	385.025000	0.543000	13.163900	24.894000	2.500000	49.669045
1015.000000	21.505095	-319.359695	37.461631	39.297140	1.000000	385.169000	-3.336000	385.408000	-3.377000	13.162900	25.180000	1.500000	49.676887
1016.000000	20.758646	-470.601183	37.460010	39.293575	1.000000	386.063000	-13.597000	386.292000	-13.533000	13.162100	26.577000	0.000000	49.665330
1017.000000	17.822442	-2814.023630	37.457742	39.291954	1.000000	388.424000	-39.290000	388.641000	-39.024000	13.163000	26.163000	0.000000	49.653774
1018.000000	13.825716	-2831.664170	37.454825	39.290658	1.000000	387.487000	-26.041000	387.677000	-25.905000	13.163100	25.932000	0.000000	49.655150
1019.000000	10.635402	-2250.672291	37.452881	39.288713	1.000000	386.748000	-16.747000	386.938000	-16.656000	13.163800	26.202000	0.000000	49.657903
1020.000000	7.370864	-2386.932416	37.454501	39.290009	1.000000	385.902000	-6.350000	386.097000	-6.350000	13.161500	27.998000	0.000000	49.662032
1021.000000	4.700762	-1897.905004	37.454177	39.292602	1.000000	384.912000	4.516000	385.149000	4.424000	13.157300	30.763000	0.000000	49.692025
1022.000000	1.362325	-2451.700841	37.450288	39.293575	1.000000	384.752000	5.869000	384.962000	5.761000	13.160000	28.278000	0.000000	49.716929
1023.000000	0.060982	-752.979150	37.452232	39.296816	1.000000	384.777000	5.305000	384.984000	5.215000	13.160100	28.338000	0.000000	49.766735
1024.000000	-0.001897	-3.559833	37.452232	39.298761	1.000000	384.838000	4.366000	385.020000	4.276000	13.161000	28.241000	0.000000	49.804568
1025.000000	-0.002221	-3.170704	37.452557	39.297465	1.000000	384.820000	4.419000	385.020000	4.328000	13.160900	28.346000	0.000000	49.824380
1026.000000	-0.004166	-3.019376	37.455797	39.297789	1.000000	384.819000	4.398000	385.020000	4.297000	13.160100	28.340000	0.000000	49.820668
1027.000000	-0.003518	-2.911284	37.456446	39.296492	1.000000	384.811000	4.287000	385.022000	4.178000	13.160900	27.815000	0.000000	49.830846
1028.000000	-0.003842	-2.932902	37.459686	39.296492	1.000000	384.822000	4.259000	385.037000	4.160000	13.160100	27.949000	0.000000	49.786548
1029.000000	-0.003193	-2.824811	37.461631	39.294547	1.000000	384.837000	4.253000	385.011000	4.162000	13.160900	27.958000	0.000000	49.781459
1030.000000	-0.004166	-2.738338	37.467464	39.288713	1.000000	384.812000	4.276000	385.020000	4.176000	13.160000	28.132000	0.000000	49.745002
1031.000000	-0.004166	-2.803193	37.469085	39.284823	1.000000	384.832000	4.240000	385.021000	4.138000	13.160100	28.210000	0.000000	49.729318
1032.000000	-0.004166	-2.716720	37.473946	39.280285	1.000000	384.847000	4.245000	385.029000	4.126000	13.161000	27.928000	0.000000	49.719140
1033.000000	-0.004166	-2.759956	37.478807	39.276720	1.000000	384.819000	4.288000	385.019000	4.179000	13.161000	27.822000	0.000000	49.716387
1034.000000	-0.004166	-2.759956	37.487558	39.266672	1.000000	384.813000	4.271000	385.011000	4.170000	13.161000	27.850000	0.000000	49.712675
1035.000000	-0.004166	-2.759956	37.488854	39.259217	1.000000	384.840000	4.279000	385.023000	4.170000	13.161000	27.937000	0.000000	49.687771
1036.000000	-0.004166	-2.781574	37.493715	39.251113	1.000000	384.838000	4.271000	385.047000	4.170000	13.161000	27.919000	0.000000	49.686394
1037.000000	-0.004166	-2.738338	37.497928	39.240092	1.000000	384.822000	4.274000	385.023000	4.164000	13.161000	28.011000	0.000000	49.666040
1038.000000	-0.004166	-2.716720	37.503114	39.225831	1.000000	384.841000	4.219000	385.049000	4.110000	13.160900	28.100000	0.000000	49.688190
1039.000000	-0.004166	-2.738338	37.510568	39.215782	1.000000	384.850000	4.206000	385.041000	4.105000	13.160100	28.016000	0.000000	49.678971
1040.000000	-0.004166	-2.781574	37.513808	39.203465	1.000000	384.849000	4.173000	385.046000	4.064000	13.160900	28.076000	0.000000	49.664663
1041.000000	-0.004166	-2.738338	37.520938	39.193741	1.000000	384.839000	4.200000	385.015000	4.099000	13.160100	28.121000	0.000000	49.662329
1042.000000	-0.004166	-2.738338	37.530661	39.174941	1.000000	384.832000	4.197000	385.059000	4.087000	13.160900	28.034000	0.000000	49.685857
1043.000000	-0.004166	-2.716720	37.537467	39.160031	1.000000	384.852000	4.173000	385.049000	4.065000	13.160100	27.987000	0.000000	49.679391
1044.000000	-0.004166	-2.738338	37.544272	39.148686	1.000000	384.870000	4.198000	385.040000	4.107000	13.161000	28.049000	0.000000	49.699208
1045.000000	-0.004490	-2.738338	37.547837	39.136369	1.000000	384.869000	4.181000	385.045000	4.080000	13.160900	28.058000	0.000000	49.700585
1046.000000	-0.004166	-2.759956	37.557236	39.119190	1.000000	384.861000	4.193000	385.088000	4.083000	13.160100	28.220000	0.000000	49.703341
1047.000000	-0.004166	-2.738338	37.567931	39.093583	1.000000	384.868000	4.208000	385.069000	4.102000	13.160900	28.196000	0.000000	49.706095
1048.000000	-0.004490	-2.738338	37.574088	39.081266	1.000000	384.850000	4.102000	385.064000	4.030000	13.160000	27.971000	0.000000	49.699208
1049.000000	-0.004166	-2.738338	37.580894	39.065707	1.000000	384.851000	4.121000	385.095000	4.033000	13.160000	27.904000	0.000000	49.721780
1050.000000	-0.004490	-2.738338	37.589968	39.051446	1.000000	384.863000	4.128000	385.055000	4.056000	13.160100	28.009000	0.000000	49.713937
1051.000000	-0.004166	-2.781574	37.600339	39.029728	1.000000	384.873000	4.291000	385.084000	4.198000	13.161000	27.744000	0.000000	49.718070
1052.000000	0.348801	667.759468	37.608441	39.014170	1.000000	384.667000	6.531000	384.887000	6.410000	13.161100	27.084000	0.000000	49.723157
1053.000000	1.484194	1075.060215	37.617191	39.001853	1.000000	384.111000	12.932000	384.332000	12.799000	13.162000	27.293000	0.000000	49.742974
1054.000000	3.956583	2115.549184	37.623997	38.986618	1.000000	383.251000	22.713000	383.483000	22.537000	13.162000	27.221000	9.500000	49.731423
1055.000000	6.949832	2557.459622	37.635988	38.962956	1.000000	381.761000	39.285000	382.009000	38.950000	13.161900	27.166000	16.000000	49.747107
1056.000000	10.620493	2922.625488	37.643118	38.941564	1.000000	380.400000	53.727000	380.631000	53.258000	13.161200	27.218000	22.500000	49.757705
1057.000000	14.085985	2508.185398	37.646683	38.927626	1.000000	380.231000	53.437000	380.473000	52.978000	13.163100	25.537000	27.500000	49.794160
1058.000000	16.805677	2046.721074	37.651868	38.912391	1.000000	380.437000	49.637000	380.695000	49.202000	13.163900	25.160000	25.500000	49.836123
1059.000000	18.946815	1525.124536	37.661915	38.890350	1.000000	381.386000	36.978000	381.628000	36.674000	13.163000	25.241000	23.000000	49.918671
1060.000000	20.177823	1045.880776	37.670989	38.864095	1.000000	381.283000	38.752000	381.538000	38.418000	13.163000	25.155000	19.500000	49.967095
1061.000000	21.642522	1233.070462	37.674878	38.844647	1.000000	381.482000	35.549000	381.693000	35.264000	13.163000	25.103000	17.000000	50.007677
1062.000000	22.720546	935.738679	37.682008	38.824226	1.000000	381.395000	36.630000	381.618000	36.304000	13.163000	25.048000	16.500000	50.076864
1063.000000	23.793059	952.091275	37.686869	38.796351	1.000000	381.314000	36.935000	381.560000	36.644000	13.163100	25.106000	15.500000	50.101763
1064.000000	24.582616	569.470876	37.693999	38.760372	1.000000	381.748000	32.119000	381.961000	31.819000	13.163900	24.990000	16.000000	50.110029
1065.000000	25.452879	791.766626	37.695620	38.734441	1.000000	381.401000	35.501000	381.638000	35.212000	13.163100	25.069000	14.000000	50.102189
1066.000000	26.269014	612.796589	37.695944	38.710455	1.000000	382.460000	22.714000	382.671000	22.518000	13.164000	24.999000	15.500000	50.100811
1067.000000	26.564611	375.813829	37.699509	38.684848	1.000000	382.172000	26.797000	382.389000	26.548000	13.163800	25.260000	11.500000	50.089264
1068.000000	27.126960	584.828468	37.700157	38.641414	1.000000	381.978000	28.721000	382.175000	28.475000	13.162100	25.236000	12.500000	50.090642
1069.000000	27.687364	564.149796	37.699833	38.616780	1.000000	381.842000	29.822000	382.101000	29.540000	13.163000	25.017000	13.000000	50.064365
1070.000000	28.135298	261.821590	37.701129	38.594090	1.000000	383.367000	11.191000	383.612000	11.081000	13.163100	25.008000	14.000000	50.059280
1071.000000	27.876326	-194.622213	37.699509	38.573670	1.000000	384.752000	-3.933000	384.952000	-3.896000	13.164000	25.187000	8.000000	50.041271
1072.000000	27.171689	-324.288663	37.694972	38.545146	1.000000	384.418000	1.044000	384.619000	1.531000	13.164000	25.337000	0.000000	50.016371
1073.000000	26.871553	119.060923	37.688490	38.523104	1.000000	383.766000	9.396000	383.974000	9.324000	13.164000	25.279000	1.500000	49.998362
1074.000000	26.771400	71.041429	37.687842	38.509815	1.000000	384.612000	-0.740000	384.803000	-0.741000	13.163800	25.147000	6.500000	49.982680
1075.000000	26.081024	-431.299150	37.684277	38.499767	1.000000	385.366000	-8.464000	385.569000	-8.464000	13.162100	26.421000	3.000000	49.954072
1076.000000	24.220250	-1640.625774	37.675851	38.487125	1.000000	386.298000	-17.681000	386.527000	-17.593000	13.163100	25.969000	0.000000	49.944853
1077.000000	22.746475	-1034.622095	37.669693	38.479346	1.000000	386.017000	-13.446000	386.236000	-13.382000	13.163900	25.891000	0.000000	49.907026
1078.000000	21.921590	-397.315214	37.665804	38.474160	1.000000	385.417000	-6.138000	385.623000	-6.115000	13.163000	26.144000	0.000000	49.911161
1079.000000	20.901907	-771.095268	37.662887	38.471567	1.000000	386.847000	-22.709000	387.020000	-22.563000	13.163100	26.638000	0.000000	49.898236
1080.000000	17.296719	-3095.018478	37.658026	38.472215	1.000000	387.747000	-31.066000	387.948000	-30.871000	13.163900	25.926000	0.000000	49.915297
1081.000000	14.469095	-1945.357148	37.649600	38.476105	1.000000	387.027000	-21.811000	387.238000	-21.677000	13.163000	26.162000	0.000000	49.908834
1082.000000	11.816172	-1768.260133	37.644739	38.476753	1.000000	385.589000	-3.810000	385.810000	-3.823000	13.163100	26.067000	0.000000	49.918054
1083.000000	10.847377	-301.373285	37.642470	38.479994	1.000000	385.031000	2.006000	385.260000	1.964000	13.164000	25.049000	0.000000	49.915297
1084.000000	10.392636	-241.620357	37.636960	38.484532	1.000000	384.946000	2.521000	385.165000	2.459000	13.164000	25.047000	0.000000	49.933736
1085.000000	9.930441	-240.344878	37.633396	38.489394	1.000000	384.905000	2.681000	385.115000	2.601000	13.164000	25.093000	0.000000	49.962774
1086.000000	9.513622	-208.998370	37.631451	38.494256	1.000000	384.859000	3.215000	385.070000	3.134000	13.164100	24.946000	0.000000	49.999221
1087.000000	9.121437	-199.010724	37.630155	38.497498	1.000000	384.851000	3.068000	385.069000	2.978000	13.164900	25.044000	0.000000	49.984918
1088.000000	8.708184	-186.882868	37.626590	38.499767	1.000000	384.827000	3.348000	385.028000	3.260000	13.164000	25.408000	0.000000	49.966911
1089.000000	8.457315	-53.411594	37.625293	38.501063	1.000000	384.495000	7.217000	384.706000	7.146000	13.164000	25.124000	0.000000	49.969669
1090.000000	8.689385	310.252067	37.625618	38.503332	1.000000	384.230000	9.986000	384.447000	9.903000	13.164000	25.167000	2.500000	49.914781
1091.000000	9.038786	221.178059	37.625618	38.504629	1.000000	384.679000	4.392000	384.874000	4.284000	13.164000	25.216000	4.500000	49.880658
1092.000000	8.682254	-188.504239	37.628534	38.504629	1.000000	384.680000	4.499000	384.919000	4.408000	13.164000	25.106000	2.000000	49.895394
1093.000000	8.512739	-19.449271	37.629831	38.500091	1.000000	384.774000	3.661000	384.999000	3.562000	13.163800	25.376000	1.000000	49.873249
1094.000000	8.074853	-314.063216	37.633071	38.497822	1.000000	384.871000	2.761000	385.050000	2.680000	13.162000	26.570000	0.000000	49.851104
1095.000000	7.169910	-850.931573	37.635340	38.492960	1.000000	385.365000	-3.122000	385.540000	-3.131000	13.161900	27.217000	0.000000	49.851104
1096.000000	5.248850	-1124.532521	37.636960	38.487125	1.000000	384.860000	3.106000	385.077000	3.015000	13.160800	28.247000	0.000000	49.828013
1097.000000	4.428177	-660.517769	37.640525	38.479670	1.000000	384.756000	4.374000	384.950000	4.274000	13.159100	28.871000	0.000000	49.822496
1098.000000	3.083079	-1084.733268	37.643442	38.467353	1.000000	384.628000	5.612000	384.858000	5.513000	13.159700	29.347000	0.000000	49.834475
1099.000000	1.359408	-1241.314473	37.649276	38.456008	1.000000	384.614000	5.857000	384.843000	5.763000	13.157400	31.535000	0.000000	49.821551
1100.000000	0.059362	-759.853763	37.650896	38.450174	1.000000	384.647000	5.494000	384.864000	5.365000	13.161000	27.951000	0.000000	49.828958
1101.000000	0.116083	16.511185	37.656081	38.443043	1.000000	384.611000	5.785000	384.805000	5.670000	13.161100	27.633000	0.000000	49.837234
1102.000000	0.693665	740.026676	37.661591	38.428781	1.000000	384.505000	6.787000	384.733000	6.716000	13.162000	27.117000	0.000000	49.837234
1103.000000	1.564252	793.994559	37.665156	38.416464	1.000000	384.187000	10.816000	384.397000	10.726000	13.161900	27.067000	0.000000	49.862138
1104.000000	3.686915	2022.473336	37.669369	38.408684	1.000000	383.264000	21.509000	383.475000	21.320000	13.161000	26.870000	6.500000	49.910566
1105.000000	6.463976	2229.931055	37.675527	38.398636	1.000000	382.390000	30.887000	382.609000	30.607000	13.161100	26.930000	15.500000	49.923926
1106.000000	9.441344	2474.571642	37.681684	38.383726	1.000000	381.553000	39.863000	381.767000	39.500000	13.162000	26.623000	18.500000	49.972351
1107.000000	12.476728	2345.286322	37.688166	38.370436	1.000000	382.235000	29.609000	382.481000	29.322000	13.162200	26.189000	21.500000	49.994495
1108.000000	13.669166	637.606671	37.693675	38.357147	1.000000	383.080000	19.580000	383.290000	19.393000	13.164000	25.225000	16.500000	50.059978
1109.000000	14.721584	1198.072433	37.695944	38.344506	1.000000	381.322000	40.793000	381.531000	40.445000	13.163900	24.762000	9.000000	50.096858
1110.000000	16.768403	1632.909003	37.701129	38.322789	1.000000	380.901000	44.291000	381.106000	43.878000	13.163100	25.058000	18.000000	50.166039
1111.000000	18.630797	1492.181384	37.709231	38.299127	1.000000	381.088000	40.393000	381.338000	40.051000	13.164000	25.099000	20.000000	50.198778
1112.000000	20.142494	1147.024631	37.713120	38.280651	1.000000	382.016000	28.769000	382.263000	28.510000	13.164000	24.855000	19.000000	50.226436
1113.000000	20.761239	427.077894	37.717982	38.260230	1.000000	383.246000	14.615000	383.467000	14.456000	13.164000	25.176000	15.500000	50.251334
1114.000000	20.959925	269.997883	37.721222	38.239810	1.000000	383.305000	14.442000	383.536000	14.292000	13.164000	25.217000	7.500000	50.273473
1115.000000	21.154073	275.470375	37.728028	38.201886	1.000000	383.365000	13.974000	383.605000	13.826000	13.164100	25.118000	7.500000	50.265633
1116.000000	21.298306	194.680814	37.732565	38.180817	1.000000	383.364000	14.480000	383.610000	14.337000	13.164900	25.247000	7.500000	50.263313
1117.000000	21.484676	370.254815	37.733214	38.156183	1.000000	382.173000	28.704000	382.460000	28.446000	13.164000	24.961000	6.500000	50.254094
1118.000000	22.476807	828.841158	37.732889	38.137059	1.000000	382.470000	23.968000	382.645000	23.730000	13.164000	25.044000	11.000000	50.263752
1119.000000	22.730918	283.430365	37.738723	38.098162	1.000000	382.400000	25.523000	382.621000	25.296000	13.164000	24.893000	13.000000	50.241174
1120.000000	23.501675	773.445665	37.738399	38.070287	1.000000	381.818000	31.711000	382.048000	31.429000	13.163900	24.872000	10.500000	50.201976
1121.000000	24.290584	680.348365	37.736130	38.046301	1.000000	382.324000	24.682000	382.559000	24.478000	13.163100	25.227000	14.000000	50.181216
1122.000000	24.729767	346.418106	37.735158	38.021991	1.000000	383.063000	15.658000	383.337000	15.515000	13.164000	25.004000	12.500000	50.161837
1123.000000	24.700272	0.028818	37.734834	37.987956	1.000000	383.667000	9.445000	383.890000	9.359000	13.164000	24.869000	8.500000	50.172436
1124.000000	24.682445	194.161684	37.732889	37.959757	1.000000	383.165000	15.521000	383.416000	15.379000	13.164000	24.958000	5.500000	50.158137
1125.000000	24.863304	308.824461	37.730297	37.937391	1.000000	382.917000	18.227000	383.177000	18.064000	13.164000	25.023000	8.000000	50.175197
1126.000000	25.145937	380.031758	37.727380	37.917295	1.000000	382.689000	20.870000	382.943000	20.677000	13.164000	24.956000	9.000000	50.146597
1127.000000	25.514138	451.174169	37.726732	37.893633	1.000000	382.509000	22.851000	382.714000	22.635000	13.164000	24.933000	10.000000	50.147977
1128.000000	25.928688	448.881345	37.721546	37.863488	1.000000	382.591000	21.233000	382.840000	21.052000	13.164000	25.048000	11.000000	50.124457
1129.000000	26.270310	403.500750	37.720250	37.842419	1.000000	382.609000	21.035000	382.849000	20.846000	13.164000	25.026000	10.500000	50.133678
1130.000000	26.613229	400.061515	37.717982	37.826213	1.000000	382.711000	19.609000	382.946000	19.431000	13.164000	24.977000	10.500000	50.136439
1131.000000	26.858913	320.548141	37.713444	37.807737	1.000000	382.903000	17.635000	383.100000	17.473000	13.164000	24.868000	10.500000	50.111538
1132.000000	27.066350	313.821084	37.706963	37.781158	1.000000	382.977000	16.414000	383.237000	16.240000	13.164000	24.941000	9.500000	50.123519
1133.000000	27.114968	140.150566	37.699185	37.763006	1.000000	383.423000	11.289000	383.682000	11.174000	13.164000	24.966000	8.500000	50.134120
1134.000000	27.065701	64.703721	37.698212	37.750041	1.000000	383.632000	9.415000	383.879000	9.341000	13.164000	25.102000	7.000000	50.136881
1135.000000	26.903965	35.221482	37.694647	37.737075	1.000000	383.648000	9.669000	383.868000	9.561000	13.164000	25.021000	6.000000	50.121201
1136.000000	26.732830	37.016806	37.687194	37.719572	1.000000	383.640000	9.824000	383.859000	9.734000	13.164000	24.951000	6.000000	50.119820
1137.000000	26.622629	52.287870	37.682332	37.710172	1.000000	383.751000	8.662000	383.961000	8.572000	13.164000	25.039000	6.000000	50.121201
1138.000000	26.427833	-22.800105	37.676823	37.701096	1.000000	383.945000	6.709000	384.157000	6.619000	13.164000	24.944000	6.000000	50.087523
1139.000000	26.265773	42.597450	37.670341	37.693317	1.000000	384.079000	4.970000	384.307000	4.889000	13.164100	24.975000	5.000000	50.090284
1140.000000	25.874235	-209.711773	37.665156	37.685214	1.000000	384.898000	-4.255000	385.110000	-4.257000	13.165000	24.927000	5.000000	50.084761
1141.000000	25.143668	-417.830962	37.656081	37.679703	1.000000	385.064000	-5.475000	385.296000	-5.493000	13.164800	25.035000	0.000000	50.066763
1142.000000	24.411157	-407.627134	37.651544	37.672897	1.000000	385.188000	-6.539000	385.437000	-6.532000	13.163000	26.201000	0.000000	50.051082
1143.000000	23.504268	-577.244157	37.647655	37.669007	1.000000	386.007000	-15.773000	386.243000	-15.702000	13.163000	25.759000	0.000000	50.030322
1144.000000	21.587097	-1492.994512	37.639553	37.666414	1.000000	386.348000	-17.461000	386.547000	-17.375000	13.163000	25.741000	0.000000	50.016022
1145.000000	20.028728	-1161.824055	37.635664	37.661876	1.000000	387.163000	-26.580000	387.353000	-26.447000	13.163000	25.669000	0.000000	50.033084
1146.000000	17.581621	-1827.126729	37.629831	37.661552	1.000000	386.514000	-17.330000	386.706000	-17.261000	13.163000	25.742000	0.000000	50.010944
1147.000000	15.868322	-1136.509049	37.625942	37.664793	1.000000	386.201000	-13.773000	386.409000	-13.706000	13.163000	25.752000	0.000000	50.020165
1148.000000	13.918415	-1597.670242	37.624321	37.669007	1.000000	387.069000	-23.305000	387.261000	-23.180000	13.163100	26.437000	0.000000	50.000786
1149.000000	10.258126	-2542.713889	37.617191	37.675490	1.000000	386.599000	-16.877000	386.809000	-16.804000	13.163700	26.120000	0.000000	50.024309
1150.000000	7.040262	-2232.966907	37.615247	37.681324	1.000000	385.602000	-4.611000	385.812000	-4.611000	13.160800	27.784000	0.000000	50.028452
1151.000000	4.550695	-1856.160089	37.613302	37.684890	1.000000	384.789000	4.454000	385.000000	4.363000	13.158600	30.122000	0.000000	50.067655
1152.000000	1.593423	-2070.678379	37.613302	37.691696	1.000000	384.603000	5.883000	384.822000	5.781000	13.155700	32.525000	0.000000	50.108238
1153.000000	0.144281	-618.772872	37.610710	37.702717	1.000000	384.636000	5.345000	384.849000	5.227000	13.161900	28.060000	0.000000	50.103160
1154.000000	-0.002869	-3.603069	37.611034	37.715358	1.000000	384.692000	4.313000	384.929000	4.212000	13.161000	27.996000	0.000000	50.116078
1155.000000	-0.003193	-3.149085	37.610710	37.724110	1.000000	384.709000	4.335000	384.919000	4.227000	13.161100	28.214000	0.000000	50.150201
1156.000000	-0.003193	-2.954521	37.615571	37.730593	1.000000	384.699000	4.277000	384.910000	4.186000	13.161900	28.044000	0.000000	50.129443
1157.000000	-0.004166	-2.868048	37.612654	37.739993	1.000000	384.689000	4.165000	384.909000	4.066000	13.161100	27.801000	0.000000	50.113763
1158.000000	-0.004166	-2.846429	37.615895	37.747772	1.000000	384.679000	4.211000	384.902000	4.119000	13.161900	27.734000	0.000000	50.095768
1159.000000	-0.004490	-2.759956	37.618164	37.752634	1.000000	384.673000	4.218000	384.920000	4.108000	13.161000	27.845000	0.000000	50.089310
1160.000000	-0.003518	-2.824811	37.621080	37.755875	1.000000	384.701000	4.203000	384.919000	4.093000	13.161000	27.708000	0.000000	50.065788
1161.000000	-0.004166	-2.781574	37.622053	37.755551	1.000000	384.709000	4.223000	384.911000	4.115000	13.161000	27.705000	0.000000	50.022890
1162.000000	-0.004166	-2.803193	37.627886	37.759441	1.000000	384.698000	4.166000	384.918000	4.075000	13.161000	27.846000	0.000000	50.007209
1163.000000	-0.004166	-2.738338	37.632423	37.762358	1.000000	384.682000	4.221000	384.899000	4.121000	13.161100	27.881000	0.000000	49.990146
1164.000000	-0.004166	-2.781574	37.636312	37.762034	1.000000	384.699000	4.225000	384.893000	4.125000	13.161900	27.718000	0.000000	49.978609
1165.000000	-0.002869	-2.759956	37.642794	37.760737	1.000000	384.692000	4.177000	384.919000	4.077000	13.161000	27.772000	0.000000	49.970768
1166.000000	-0.004166	-2.738338	37.648303	37.756199	1.000000	384.710000	4.152000	384.913000	4.052000	13.161000	27.627000	0.000000	49.957850
1167.000000	-0.004490	-2.781574	37.653165	37.749717	1.000000	384.686000	4.441000	384.915000	4.342000	13.161100	27.709000	0.000000	49.942168
1168.000000	0.387695	726.615821	37.658350	37.742262	1.000000	384.380000	7.908000	384.603000	7.812000	13.162000	27.079000	0.000000	49.937091
1169.000000	2.372283	1933.009787	37.662563	37.737075	1.000000	383.449000	18.545000	383.695000	18.383000	13.161900	27.155000	0.000000	49.947696
1170.000000	5.487078	2562.932133	37.670017	37.727027	1.000000	382.278000	31.817000	382.493000	31.539000	13.161100	27.110000	13.000000	49.973983
1171.000000	8.805420	2526.484780	37.680712	37.717627	1.000000	381.456000	39.952000	381.715000	39.595000	13.162000	27.138000	21.500000	49.973983
1172.000000	11.781491	2325.083466	37.685249	37.712441	1.000000	380.599000	48.778000	380.848000	48.350000	13.162200	27.153000	21.500000	50.025175
1173.000000	14.818172	2402.282606	37.694647	37.704338	1.000000	379.618000	58.321000	379.856000	57.819000	13.164000	25.007000	23.000000	50.048696
1174.000000	17.815959	2356.123186	37.697240	37.695262	1.000000	378.918000	65.405000	379.137000	64.878000	13.163900	24.902000	27.000000	50.111419
1175.000000	20.624461	2196.468731	37.707287	37.676462	1.000000	378.757000	65.361000	378.967000	64.803000	13.163000	25.026000	28.500000	50.188890
1176.000000	22.774026	1339.557059	37.713768	37.660903	1.000000	381.760000	28.545000	381.971000	28.293000	13.163200	25.169000	29.000000	50.253918
1177.000000	23.345449	468.175670	37.717982	37.639835	1.000000	383.994000	2.635000	384.214000	2.550000	13.164900	25.154000	14.500000	50.332310
1178.000000	22.710498	-398.006999	37.721871	37.614552	1.000000	384.689000	-3.614000	384.912000	-3.652000	13.163800	25.257000	2.500000	50.370576
1179.000000	22.028225	-409.226886	37.730297	37.579870	1.000000	385.192000	-8.584000	385.439000	-8.583000	13.162100	26.597000	0.000000	50.399167
1180.000000	19.713683	-2283.488864	37.733214	37.550697	1.000000	387.423000	-32.367000	387.641000	-32.173000	13.163000	25.935000	0.000000	50.424065
1181.000000	16.995611	-1952.426329	37.736454	37.526711	1.000000	387.862000	-35.624000	388.062000	-35.398000	13.163100	25.899000	0.000000	50.412534
1182.000000	13.183310	-2923.952743	37.740343	37.499484	1.000000	387.407000	-28.151000	387.609000	-27.975000	13.164000	25.974000	0.000000	50.396856
1183.000000	9.616044	-2430.147396	37.743584	37.454429	1.000000	386.284000	-14.379000	386.502000	-14.337000	13.163700	26.119000	0.000000	50.393164
1184.000000	6.601403	-2003.531967	37.747797	37.425257	1.000000	385.260000	-2.124000	385.459000	-2.161000	13.160700	28.198000	0.000000	50.388090
1185.000000	3.665199	-2153.671004	37.747149	37.398029	1.000000	384.619000	5.286000	384.811000	5.185000	13.158300	30.520000	0.000000	50.405150
1186.000000	0.641806	-2122.238006	37.749742	37.373395	1.000000	384.528000	5.720000	384.742000	5.612000	13.161000	28.107000	0.000000	50.425901
1187.000000	-0.041764	-11.385651	37.748445	37.340333	1.000000	384.600000	4.280000	384.848000	4.191000	13.160900	28.237000	0.000000	50.420827
1188.000000	-0.002869	-3.257177	37.749418	37.309865	1.000000	384.599000	4.281000	384.828000	4.199000	13.160000	28.055000	0.000000	50.423592
1189.000000	-0.003518	-3.019376	37.752334	37.293010	1.000000	384.591000	4.291000	384.810000	4.191000	13.160000	28.272000	0.000000	50.406532
1190.000000	-0.004166	-2.954521	37.750714	37.278423	1.000000	384.601000	4.284000	384.811000	4.183000	13.160100	28.166000	0.000000	50.413444
1191.000000	-0.004166	-2.868048	37.754279	37.265782	1.000000	384.611000	4.142000	384.820000	4.032000	13.161000	27.860000	0.000000	50.365030
1192.000000	-0.004166	-2.803193	37.755575	37.255410	1.000000	384.620000	4.161000	384.820000	4.051000	13.161100	27.854000	0.000000	50.349352
1193.000000	-0.004166	-2.846429	37.758492	37.248279	1.000000	384.620000	4.163000	384.819000	4.056000	13.161900	27.811000	0.000000	50.298626
1194.000000	-0.003518	-2.868048	37.758816	37.243741	1.000000	384.619000	4.105000	384.813000	4.022000	13.161000	27.907000	0.000000	50.284330
1195.000000	-0.004166	-2.781574	37.762057	37.241148	1.000000	384.609000	4.153000	384.838000	4.044000	13.161000	27.891000	0.000000	50.242825
1196.000000	-0.004490	-2.759956	37.766594	37.229479	1.000000	384.586000	4.377000	384.806000	4.275000	13.161100	27.883000	0.000000	50.241442
1197.000000	0.265502	263.984632	37.768863	37.227534	1.000000	384.418000	6.633000	384.637000	6.516000	13.162000	26.926000	0.000000	50.217924
1198.000000	1.461181	1092.472704	37.769835	37.221700	1.000000	383.982000	11.620000	384.196000	11.524000	13.162000	26.995000	0.000000	50.203627
1199.000000	3.617229	1804.524929	37.775344	37.216189	1.000000	383.317000	19.010000	383.566000	18.847000	13.161900	27.115000	7.000000	50.210084
1200.000000	6.300619	2353.267965	37.779233	37.208734	1.000000	381.960000	34.322000	382.201000	34.036000	13.161000	26.999000	12.000000	50.214233
1201.000000	9.728514	2691.936318	37.784095	37.202252	1.000000	381.484000	38.165000	381.732000	37.838000	13.161000	27.170000	20.500000	50.227605
1202.000000	11.784732	1123.079752	37.788308	37.196417	1.000000	382.904000	20.360000	383.133000	20.156000	13.161300	27.001000	22.000000	50.254814
1203.000000	12.757741	756.227855	37.789928	37.185721	1.000000	383.342000	15.321000	383.560000	15.180000	13.164000	25.450000	10.500000	50.308765
1204.000000	13.057228	-36.981698	37.795114	37.173403	1.000000	384.474000	2.341000	384.673000	2.278000	13.164000	25.151000	8.000000	50.354416
1205.000000	12.607673	-110.548714	37.799651	37.160114	1.000000	383.930000	9.805000	384.124000	9.710000	13.164000	24.896000	0.000000	50.401909
1206.000000	13.037780	502.827584	37.805160	37.148769	1.000000	383.622000	13.087000	383.854000	12.951000	13.164000	24.985000	3.500000	50.444791
1207.000000	13.221881	127.604932	37.806132	37.135480	1.000000	384.030000	8.144000	384.278000	8.038000	13.164000	25.263000	7.000000	50.444791
1208.000000	13.329813	310.749567	37.811318	37.119273	1.000000	383.399000	15.942000	383.629000	15.775000	13.164000	24.948000	3.500000	50.468306
1209.000000	14.127148	860.724391	37.817475	37.099501	1.000000	382.533000	25.523000	382.766000	25.293000	13.163900	25.132000	7.000000	50.448940
1210.000000	15.444048	1141.681916	37.821364	37.081025	1.000000	382.089000	29.971000	382.344000	29.737000	13.163100	25.298000	12.000000	50.411131
1211.000000	16.727564	1075.795649	37.823309	37.066763	1.000000	381.853000	32.177000	382.064000	31.903000	13.164000	25.023000	14.000000	50.434646
1212.000000	18.048029	1101.903568	37.826550	37.046666	1.000000	381.411000	36.723000	381.630000	36.412000	13.164000	25.119000	14.500000	50.402370
1213.000000	19.506246	1221.649597	37.830115	37.017170	1.000000	381.337000	36.945000	381.549000	36.635000	13.164000	24.934000	16.000000	50.424503
1214.000000	20.618626	769.357517	37.832059	36.994805	1.000000	382.341000	24.228000	382.568000	24.020000	13.164000	24.975000	17.000000	50.403754
1215.000000	20.908390	125.485153	37.837245	36.973412	1.000000	383.481000	11.089000	383.686000	10.983000	13.164000	25.004000	12.500000	50.430036
1216.000000	20.974510	278.866349	37.836596	36.951371	1.000000	383.177000	14.738000	383.427000	14.584000	13.164000	24.880000	5.500000	50.423581
1217.000000	21.250985	373.153289	37.839513	36.919929	1.000000	383.608000	9.583000	383.857000	9.483000	13.164000	25.070000	7.500000	50.422198
1218.000000	21.201394	74.394141	37.838541	36.897240	1.000000	383.600000	10.470000	383.841000	10.361000	13.164000	25.153000	5.000000	50.409288
1219.000000	21.387764	393.312828	37.839189	36.878116	1.000000	382.907000	18.668000	383.157000	18.482000	13.164000	25.065000	5.500000	50.418510
1220.000000	21.739110	347.456366	37.838541	36.860288	1.000000	383.175000	15.192000	383.422000	15.045000	13.164000	24.870000	9.500000	50.414823
1221.000000	21.884640	202.986889	37.835300	36.834682	1.000000	383.428000	12.112000	383.648000	11.997000	13.163900	25.138000	7.500000	50.413439
1222.000000	21.935851	99.701712	37.834328	36.809723	1.000000	383.697000	9.151000	383.920000	9.079000	13.163100	25.119000	6.500000	50.412055
1223.000000	21.845745	56.722102	37.832707	36.795137	1.000000	383.865000	7.334000	384.111000	7.238000	13.164000	25.090000	5.000000	50.392690
1224.000000	21.642846	-24.551186	37.831087	36.779579	1.000000	383.985000	6.520000	384.196000	6.378000	13.164000	24.896000	4.500000	50.386235
1225.000000	21.448050	-29.436918	37.827846	36.760455	1.000000	383.827000	8.848000	384.045000	8.776000	13.164000	24.804000	4.000000	50.382548
1226.000000	21.437354	151.809354	37.821689	36.743275	1.000000	383.734000	9.830000	383.935000	9.745000	13.164000	25.193000	4.500000	50.365487
1227.000000	21.199774	-337.324486	37.818772	36.732255	1.000000	384.764000	-2.202000	384.971000	-2.245000	13.164000	25.834000	6.000000	50.387619
1228.000000	20.458187	-441.870489	37.813586	36.722855	1.000000	384.802000	-1.933000	384.986000	-1.998000	13.164000	24.892000	0.000000	50.349809
1229.000000	19.797630	-385.965617	37.808077	36.711510	1.000000	384.759000	-1.039000	384.980000	-1.070000	13.164000	24.999000	0.000000	50.348890
1230.000000	19.162030	-362.877293	37.801919	36.697896	1.000000	384.144000	6.430000	384.372000	6.297000	13.164000	24.986000	0.000000	50.334596
1231.000000	19.203518	211.119921	37.798679	36.689145	1.000000	383.522000	13.828000	383.736000	13.669000	13.164000	24.956000	2.500000	50.348890
1232.000000	19.506570	405.836834	37.794465	36.682662	1.000000	383.337000	14.809000	383.581000	14.663000	13.164100	25.040000	6.500000	50.346122
1233.000000	19.727944	229.960003	37.789928	36.677800	1.000000	384.136000	5.311000	384.328000	5.219000	13.164900	25.346000	8.000000	50.354427
1234.000000	19.181802	-407.021822	37.782798	36.666779	1.000000	385.959000	-15.788000	386.168000	-15.714000	13.164000	25.688000	6.500000	50.332294
1235.000000	17.246480	-1261.765367	37.778585	36.662566	1.000000	386.491000	-20.147000	386.691000	-20.039000	13.164000	25.848000	0.000000	50.347972
1236.000000	14.950413	-1697.222445	37.772752	36.659000	1.000000	386.479000	-18.703000	386.677000	-18.617000	13.164000	25.829000	0.000000	50.323071
1237.000000	12.701668	-1546.867275	37.768863	36.653490	1.000000	386.286000	-15.586000	386.467000	-15.535000	13.164000	25.805000	0.000000	50.344286
1238.000000	10.055875	-2104.359678	37.764002	36.648304	1.000000	386.171000	-13.858000	386.365000	-13.804000	13.163800	25.767000	0.000000	50.323538
1239.000000	7.424344	-1691.990820	37.758168	36.645387	1.000000	385.410000	-4.599000	385.638000	-4.530000	13.161800	26.792000	0.000000	50.358580
1240.000000	5.533751	-1147.599226	37.755251	36.644414	1.000000	384.927000	0.428000	385.138000	1.039000	13.160000	28.241000	0.000000	50.376110
1241.000000	4.213934	-847.169993	37.754279	36.644738	1.000000	384.613000	4.442000	384.832000	4.342000	13.159800	29.158000	0.000000	50.398241
1242.000000	2.562542	-1137.849382	37.753307	36.646683	1.000000	384.458000	5.894000	384.671000	5.792000	13.158300	30.561000	0.000000	50.421757
1243.000000	0.589622	-1043.463971	37.749742	36.657055	1.000000	384.453000	5.689000	384.691000	5.570000	13.161000	27.979000	0.000000	50.437434
1244.000000	-0.042736	-9.807517	37.747473	36.663214	1.000000	384.572000	4.325000	384.789000	4.218000	13.161000	28.168000	0.000000	50.443888
1245.000000	-0.003193	-3.149085	37.747473	36.668400	1.000000	384.591000	4.276000	384.783000	4.193000	13.161000	28.292000	0.000000	50.416688
1246.000000	-0.003842	-2.976139	37.746825	36.676504	1.000000	384.597000	4.242000	384.810000	4.133000	13.161100	27.959000	0.000000	50.427296
1247.000000	-0.003842	-2.932902	37.747473	36.686228	1.000000	384.573000	4.244000	384.808000	4.144000	13.162000	27.990000	0.000000	50.400095
1248.000000	-0.004166	-2.759956	37.746501	36.692062	1.000000	384.597000	4.105000	384.792000	4.002000	13.161900	27.583000	0.000000	50.393641
1249.000000	-0.002545	-2.824811	37.749094	36.697572	1.000000	384.570000	4.148000	384.809000	4.021000	13.161000	27.930000	0.000000	50.377964
1250.000000	-0.004166	-2.824811	37.749418	36.703407	1.000000	384.556000	4.286000	384.786000	4.186000	13.161100	27.499000	0.000000	50.363671
1251.000000	0.094691	-0.554891	37.752983	36.708593	1.000000	384.431000	5.739000	384.657000	5.637000	13.161800	27.022000	0.000000	50.341539
1252.000000	1.025888	579.875104	37.756548	36.709565	1.000000	384.437000	6.181000	384.629000	6.062000	13.160100	28.459000	0.000000	50.332315
1253.000000	0.831092	-10.737103	37.758816	36.704379	1.000000	384.410000	6.181000	384.619000	6.070000	13.161000	28.258000	0.000000	50.305114
1254.000000	0.845353	242.657051	37.759788	36.701138	1.000000	384.412000	6.104000	384.614000	5.984000	13.161000	28.160000	0.000000	50.298659
1255.000000	0.881655	87.804991	37.763029	36.692710	1.000000	384.426000	6.146000	384.647000	6.025000	13.161100	28.118000	0.000000	50.307884
1256.000000	0.984401	291.174051	37.768863	36.680717	1.000000	384.372000	6.422000	384.601000	6.298000	13.162100	26.950000	0.000000	50.312039
1257.000000	1.620324	518.769196	37.772104	36.667428	1.000000	384.201000	8.493000	384.421000	8.422000	13.162900	27.129000	0.000000	50.331401
1258.000000	2.997835	1180.681571	37.774696	36.660945	1.000000	384.122000	9.086000	384.344000	9.006000	13.162000	27.112000	3.500000	50.368297
1259.000000	3.825962	657.571541	37.777937	36.646035	1.000000	384.111000	8.897000	384.348000	8.814000	13.162000	27.036000	3.500000	50.377521
1260.000000	4.596720	785.861523	37.783771	36.631773	1.000000	383.786000	13.075000	383.999000	12.959000	13.161900	27.020000	3.500000	50.408876
1261.000000	5.952514	1222.947422	37.787984	36.619456	1.000000	383.150000	19.957000	383.391000	19.784000	13.161100	27.182000	7.500000	50.408876
1262.000000	7.971783	1720.512287	37.792197	36.610380	1.000000	382.640000	25.126000	382.891000	24.931000	13.162000	27.053000	12.000000	50.437933
1263.000000	9.929793	1544.375623	37.796734	36.599035	1.000000	383.067000	19.025000	383.323000	18.884000	13.161800	27.473000	14.500000	50.439318
1264.000000	10.437365	-83.201587	37.805160	36.576670	1.000000	384.501000	2.259000	384.722000	2.285000	13.160000	28.520000	10.500000	50.479895
1265.000000	9.669524	-295.687677	37.805808	36.565973	1.000000	384.718000	-0.195000	384.949000	0.522000	13.160100	27.987000	0.000000	50.481280
1266.000000	8.604789	-826.762337	37.809373	36.554953	1.000000	384.907000	-1.084000	385.139000	-1.121000	13.161100	27.959000	0.000000	50.504795
1267.000000	7.829170	-190.839014	37.815207	36.541987	1.000000	384.191000	8.416000	384.357000	8.307000	13.162000	27.136000	0.000000	50.524627
1268.000000	8.601872	922.868580	37.821689	36.526429	1.000000	382.712000	25.291000	382.930000	25.087000	13.162000	27.102000	0.500000	50.514018
1269.000000	10.851590	2057.795867	37.825578	36.503415	1.000000	381.375000	39.906000	381.579000	39.568000	13.162100	26.992000	12.000000	50.516789
1270.000000	13.396906	2024.939207	37.828170	36.490450	1.000000	380.418000	49.266000	380.658000	48.847000	13.163000	25.773000	20.000000	50.488208
1271.000000	16.228743	2298.218428	37.832383	36.477808	1.000000	379.465000	58.728000	379.704000	58.227000	13.163000	25.160000	22.500000	50.513108
1272.000000	18.918940	2104.517651	37.838217	36.455119	1.000000	379.384000	57.919000	379.615000	57.431000	13.163100	25.075000	26.500000	50.530169
1273.000000	20.775501	1117.931712	37.843726	36.430485	1.000000	381.523000	31.859000	381.760000	31.570000	13.164000	25.134000	26.500000	50.547230
1274.000000	21.641874	715.995286	37.845671	36.411685	1.000000	381.849000	28.714000	382.061000	28.439000	13.164000	25.251000	15.500000	50.574901
1275.000000	22.362717	618.485387	37.846319	36.389644	1.000000	382.090000	25.833000	382.319000	25.602000	13.164000	25.164000	13.500000	50.597028
1276.000000	23.042721	682.251842	37.850532	36.367278	1.000000	381.915000	27.820000	382.136000	27.578000	13.163900	25.109000	11.500000	50.656047
1277.000000	23.754489	662.460014	37.854097	36.332272	1.000000	382.022000	26.082000	382.250000	25.828000	13.163100	25.105000	13.000000	50.651891
1278.000000	24.362215	489.654665	37.851180	36.308934	1.000000	382.654000	18.541000	382.865000	18.349000	13.164100	25.154000	13.000000	50.653276
1279.000000	24.485380	101.951274	37.850856	36.289810	1.000000	383.390000	10.431000	383.611000	10.312000	13.164900	25.175000	10.500000	50.649596
1280.000000	24.422825	97.646824	37.853125	36.272955	1.000000	384.056000	2.673000	384.284000	2.574000	13.164000	25.090000	6.000000	50.636692
1281.000000	23.873765	-341.367104	37.851828	36.246051	1.000000	384.311000	0.870000	384.527000	0.858000	13.164000	25.520000	5.000000	50.639464
1282.000000	23.448196	-74.121908	37.850208	36.220121	1.000000	383.663000	9.026000	383.927000	8.905000	13.163900	25.325000	1.000000	50.585987
1283.000000	23.413191	140.215457	37.845671	36.202941	1.000000	383.412000	12.024000	383.622000	11.898000	13.163100	25.187000	5.500000	50.587373
1284.000000	23.498434	156.568042	37.845023	36.186735	1.000000	383.353000	12.463000	383.569000	12.371000	13.164000	25.180000	6.500000	50.568018
1285.000000	23.498434	120.899507	37.837245	36.165666	1.000000	383.466000	11.258000	383.733000	11.147000	13.164000	25.348000	6.500000	50.535280
1286.000000	23.497786	118.412011	37.835300	36.149459	1.000000	383.417000	11.678000	383.657000	11.555000	13.164000	25.245000	6.000000	50.523763
1287.000000	23.447223	129.724712	37.831087	36.142976	1.000000	383.246000	13.795000	383.485000	13.642000	13.164000	25.281000	6.000000	50.500248
1288.000000	23.731477	420.848337	37.824929	36.139735	1.000000	382.752000	19.365000	382.982000	19.185000	13.164000	25.202000	6.500000	50.491024
1289.000000	23.904881	203.419497	37.822013	36.139087	1.000000	382.676000	20.505000	382.905000	20.325000	13.164000	25.215000	10.000000	50.492410
1290.000000	24.267247	399.758690	37.811318	36.141356	1.000000	382.636000	20.633000	382.859000	20.453000	13.164000	25.180000	9.000000	50.482279
1291.000000	24.604981	390.976744	37.807429	36.146218	1.000000	382.607000	20.484000	382.857000	20.303000	13.164100	25.251000	10.000000	50.482279
1292.000000	24.907709	364.717430	37.806132	36.151404	1.000000	382.675000	19.575000	382.924000	19.387000	13.164800	25.095000	10.000000	50.452312
1293.000000	25.192935	361.256565	37.798354	36.160480	1.000000	382.748000	18.085000	382.986000	17.917000	13.163100	25.239000	9.500000	50.445860
1294.000000	25.413661	256.262576	37.792197	36.172473	1.000000	383.002000	15.541000	383.223000	15.391000	13.164000	25.329000	9.500000	50.440794
1295.000000	25.549143	240.818467	37.785715	36.186086	1.000000	383.003000	15.149000	383.230000	15.000000	13.163900	25.407000	8.000000	50.431569
1296.000000	25.660640	267.402234	37.783447	36.196459	1.000000	382.799000	17.845000	383.001000	17.697000	13.163000	25.373000	8.000000	50.447246
1297.000000	25.843768	235.519017	37.777613	36.206183	1.000000	382.193000	25.161000	382.417000	24.929000	13.163100	25.315000	9.000000	50.444954
1298.000000	26.575632	842.035712	37.772752	36.225955	1.000000	380.899000	39.129000	381.157000	38.792000	13.163900	25.353000	9.000000	50.426504
1299.000000	27.554151	878.439703	37.766270	36.242162	1.000000	381.154000	35.180000	381.394000	34.873000	13.163100	25.294000	17.000000	50.444954
1300.000000	28.336577	728.411143	37.763029	36.254803	1.000000	381.207000	34.017000	381.446000	33.745000	13.164000	25.341000	15.500000	50.424212
1301.000000	29.028250	659.107300	37.758816	36.269065	1.000000	382.282000	20.633000	382.511000	20.444000	13.164000	25.425000	15.000000	50.416373
1302.000000	29.163732	216.916869	37.753307	36.284299	1.000000	383.421000	7.474000	383.640000	7.390000	13.164000	25.293000	12.500000	50.420534
1303.000000	29.016905	-6.867430	37.745205	36.301479	1.000000	384.847000	-8.702000	385.056000	-8.709000	13.163900	25.416000	7.500000	50.411309
1304.000000	28.183916	-600.548662	37.742288	36.316065	1.000000	387.349000	-36.849000	387.549000	-36.623000	13.163100	26.256000	4.000000	50.423307
1305.000000	25.168950	-2377.225800	37.735158	36.326113	1.000000	389.797000	-62.108000	389.995000	-61.656000	13.164000	26.042000	0.000000	50.440371
1306.000000	21.350166	-2784.471400	37.729325	36.340375	1.000000	389.124000	-50.782000	389.304000	-50.418000	13.164000	26.060000	0.000000	50.449597
1307.000000	17.898286	-2431.185074	37.721222	36.354961	1.000000	388.101000	-37.192000	388.284000	-36.976000	13.164100	26.074000	0.000000	50.424694
1308.000000	14.479467	-2457.753965	37.717982	36.363389	1.000000	387.404000	-28.004000	387.612000	-27.831000	13.164900	26.175000	0.000000	50.413178
1309.000000	11.175062	-2407.707601	37.714093	36.370844	1.000000	386.641000	-18.717000	386.833000	-18.614000	13.163900	26.013000	0.000000	50.461596
1310.000000	7.901449	-2390.845328	37.712472	36.378947	1.000000	385.807000	-8.766000	386.018000	-8.738000	13.162400	27.005000	0.000000	50.469435
1311.000000	5.045950	-2179.656193	37.703074	36.390616	1.000000	384.678000	3.806000	384.899000	3.722000	13.157400	30.567000	0.000000	50.516464
1312.000000	1.762613	-2270.474650	37.700805	36.397099	1.000000	384.476000	5.637000	384.709000	5.520000	13.161000	28.193000	0.000000	50.546913
1313.000000	0.037322	-902.556025	37.698212	36.403257	1.000000	384.450000	5.312000	384.704000	5.221000	13.160900	28.144000	0.000000	50.559814
1314.000000	-0.001897	-3.603069	37.696592	36.405850	1.000000	384.535000	4.267000	384.737000	4.170000	13.159500	28.758000	0.000000	50.565363
1315.000000	0.031487	-290.607381	37.694972	36.410712	1.000000	384.494000	4.404000	384.711000	4.329000	13.155600	32.628000	0.000000	50.553364
1316.000000	0.068437	92.131073	37.693351	36.414602	1.000000	384.530000	4.247000	384.724000	4.132000	13.160900	28.048000	0.000000	50.560300
1317.000000	0.068437	393.269574	37.694323	36.414926	1.000000	384.532000	4.134000	384.761000	4.060000	13.160000	29.115000	0.000000	50.518335
1318.000000	-0.141269	-55.357239	37.694323	36.414602	1.000000	384.546000	4.167000	384.763000	4.058000	13.160000	29.060000	0.000000	50.484694
1319.000000	-0.049867	-2.803193	37.693675	36.417843	1.000000	384.509000	4.143000	384.701000	4.042000	13.160000	28.198000	0.000000	50.453341
1320.000000	-0.004166	-2.738338	37.695620	36.417195	1.000000	384.501000	4.170000	384.711000	4.062000	13.160000	28.509000	0.000000	50.418311
1321.000000	-0.004166	-2.803193	37.699185	36.417843	1.000000	384.513000	4.170000	384.719000	4.081000	13.160100	28.246000	0.000000	50.394795
1322.000000	-0.004166	-2.803193	37.698212	36.415899	1.000000	384.538000	4.168000	384.711000	4.089000	13.161000	28.372000	0.000000	50.358376
1323.000000	-0.004166	-2.738338	37.700157	36.416223	1.000000	384.517000	4.150000	384.718000	4.077000	13.160900	28.252000	0.000000	50.326534
1324.000000	-0.004166	-2.781574	37.707611	36.413630	1.000000	384.493000	4.153000	384.703000	4.052000	13.160000	28.657000	0.000000	50.306279
1325.000000	-0.004166	-2.781574	37.709555	36.409740	1.000000	384.519000	4.175000	384.731000	4.066000	13.160000	28.818000	0.000000	50.277697
1326.000000	-0.004166	-2.738338	37.714741	36.406499	1.000000	384.510000	4.134000	384.739000	4.035000	13.160100	28.084000	0.000000	50.281861
1327.000000	-0.004166	-2.738338	37.719278	36.400664	1.000000	384.510000	4.166000	384.730000	4.075000	13.161000	28.107000	0.000000	50.284149
1328.000000	-0.004166	-2.738338	37.726408	36.393533	1.000000	384.508000	4.128000	384.728000	4.031000	13.161000	27.987000	0.000000	50.266182
1329.000000	-0.004166	-2.738338	37.729973	36.384457	1.000000	384.491000	4.116000	384.712000	4.044000	13.160900	28.011000	0.000000	50.267570
1330.000000	-0.004490	-2.716720	37.733862	36.378947	1.000000	384.503000	4.175000	384.730000	4.084000	13.160000	28.527000	0.000000	50.281861
1331.000000	-0.004166	-2.759956	37.739047	36.373761	1.000000	384.529000	4.213000	384.731000	4.116000	13.160100	29.001000	0.000000	50.306767
1332.000000	-0.004166	-2.738338	37.748121	36.361120	1.000000	384.522000	4.152000	384.740000	4.079000	13.161000	28.603000	0.000000	50.268959
1333.000000	-0.004166	-2.759956	37.753307	36.348802	1.000000	384.537000	4.164000	384.740000	4.064000	13.161000	28.184000	0.000000	50.308155
1334.000000	-0.004166	-2.738338	37.760761	36.340375	1.000000	384.512000	4.116000	384.742000	4.018000	13.161100	28.225000	0.000000	50.298029
1335.000000	-0.004166	-2.738338	37.766270	36.330651	1.000000	384.531000	4.165000	384.760000	4.084000	13.161900	28.231000	0.000000	50.315096
1336.000000	-0.004490	-2.738338	37.772752	36.322223	1.000000	384.523000	4.312000	384.743000	4.220000	13.161000	27.816000	0.000000	50.330774
1337.000000	0.188037	57.219602	37.780530	36.308285	1.000000	384.249000	7.452000	384.471000	7.335000	13.161100	27.220000	0.000000	50.317872
1338.000000	2.295467	2293.935596	37.787336	36.297913	1.000000	383.092000	20.900000	383.330000	20.715000	13.162000	27.040000	0.000000	50.334939
1339.000000	5.575239	2411.042947	37.792845	36.287541	1.000000	382.394000	28.444000	382.617000	28.206000	13.161900	27.058000	17.500000	50.310033
1340.000000	8.503340	2370.485817	37.799975	36.276844	1.000000	381.563000	36.957000	381.811000	36.644000	13.161000	27.223000	18.500000	50.344166
1341.000000	11.382499	2237.393564	37.811642	36.261610	1.000000	381.129000	40.907000	381.360000	40.573000	13.161200	27.060000	20.000000	50.361232
1342.000000	13.522988	1409.877587	37.818124	36.251238	1.000000	381.817000	31.584000	382.056000	31.303000	13.163100	25.313000	21.000000	50.442395
1343.000000	15.088488	1259.784038	37.823633	36.238920	1.000000	381.587000	33.972000	381.818000	33.680000	13.164000	24.994000	15.000000	50.506490
1344.000000	16.698069	1332.592059	37.830763	36.230817	1.000000	381.368000	35.746000	381.609000	35.438000	13.163900	25.142000	15.000000	50.532781
1345.000000	18.186753	1217.950794	37.841134	36.216231	1.000000	381.284000	35.816000	381.535000	35.525000	13.163000	25.325000	16.500000	50.599156
1346.000000	19.453739	1026.846005	37.845023	36.206183	1.000000	381.501000	32.713000	381.758000	32.414000	13.163000	25.207000	16.500000	50.606098
1347.000000	20.567740	933.662159	37.851504	36.196459	1.000000	381.562000	31.960000	381.797000	31.676000	13.163100	25.365000	15.000000	50.645285
1348.000000	21.541072	806.626721	37.857338	36.190300	1.000000	382.088000	25.041000	382.362000	24.816000	13.164000	25.388000	14.500000	50.683083
1349.000000	22.128378	524.652667	37.860903	36.178955	1.000000	382.657000	18.129000	382.879000	17.955000	13.164000	25.200000	12.500000	50.687248
1350.000000	22.411011	293.055895	37.866736	36.169231	1.000000	383.145000	12.640000	383.386000	12.517000	13.164000	25.282000	9.500000	50.666513
1351.000000	22.374710	35.437786	37.871922	36.167286	1.000000	383.784000	5.625000	384.027000	5.578000	13.164000	25.213000	7.500000	50.652227
1352.000000	22.045079	-158.454828	37.872894	36.163397	1.000000	384.269000	0.163000	384.454000	0.950000	13.164000	25.243000	4.500000	50.637941
1353.000000	21.604600	-215.116344	37.875811	36.155942	1.000000	384.283000	1.467000	384.512000	1.377000	13.164100	25.274000	2.000000	50.637941
1354.000000	21.142729	-271.561676	37.876783	36.157238	1.000000	384.489000	0.000000	384.707000	-0.405000	13.164900	25.304000	2.000000	50.625044
1355.000000	20.605013	-292.920537	37.877755	36.155293	1.000000	384.476000	0.000000	384.678000	0.085000	13.164000	25.281000	1.000000	50.614428
1356.000000	20.066002	-269.810595	37.875811	36.157562	1.000000	384.453000	0.000000	384.675000	0.680000	13.164000	25.540000	1.000000	50.575735
1357.000000	19.628763	-144.770455	37.874838	36.160480	1.000000	384.590000	-0.213000	384.826000	-0.981000	13.163900	25.467000	1.000000	50.557282
1358.000000	18.955242	-455.511624	37.873218	36.168907	1.000000	384.800000	-2.524000	385.002000	-2.554000	13.163000	26.444000	0.000000	50.530096
1359.000000	18.033120	-613.087264	37.871273	36.172797	1.000000	385.098000	-6.247000	385.317000	-6.273000	13.163100	26.500000	0.000000	50.505193
1360.000000	16.384969	-1118.609113	37.869977	36.178631	1.000000	385.354000	-7.847000	385.564000	-7.838000	13.163900	25.900000	0.000000	50.501522
1361.000000	15.139699	-857.849423	37.866736	36.183169	1.000000	385.439000	-8.451000	385.650000	-8.449000	13.163000	26.154000	0.000000	50.501522
1362.000000	13.499652	-1322.923485	37.863171	36.191597	1.000000	385.927000	-13.773000	386.144000	-13.745000	13.163100	26.021000	0.000000	50.474336
1363.000000	11.299848	-1807.497324	37.861875	36.197755	1.000000	386.297000	-17.152000	386.490000	-17.057000	13.163900	26.152000	0.000000	50.482175
1364.000000	8.028180	-2492.732375	37.857014	36.201321	1.000000	385.714000	-9.646000	385.937000	-9.607000	13.162800	26.677000	0.000000	50.510749
1365.000000	5.488374	-1550.045162	37.854421	36.206183	1.000000	384.722000	1.780000	384.971000	1.715000	13.161000	28.774000	0.000000	50.531981
1366.000000	3.126511	-1834.649893	37.850532	36.212341	1.000000	384.374000	5.509000	384.614000	5.398000	13.161000	28.417000	0.000000	50.539819
1367.000000	0.696906	-1781.166250	37.847939	36.218500	1.000000	384.334000	5.720000	384.571000	5.601000	13.160400	28.621000	0.000000	50.559663
1368.000000	-0.012917	-10.520920	37.846319	36.221741	1.000000	384.456000	4.463000	384.663000	4.355000	13.154800	33.231000	0.000000	50.592403
1369.000000	-0.002869	-3.170704	37.843078	36.221741	1.000000	384.424000	4.485000	384.604000	4.393000	13.153300	33.893000	0.000000	50.600241
1370.000000	-0.002545	-3.040994	37.842754	36.221741	1.000000	384.457000	4.430000	384.641000	4.322000	13.156300	31.495000	0.000000	50.626532
1371.000000	-0.002221	-2.846429	37.840810	36.221741	1.000000	384.430000	4.324000	384.651000	4.234000	13.159100	29.783000	0.000000	50.601630
1372.000000	-0.003518	-2.738338	37.840161	36.224334	1.000000	384.435000	4.176000	384.664000	4.086000	13.160100	28.486000	0.000000	50.587344
1373.000000	-0.002869	-2.738338	37.841134	36.224658	1.000000	384.475000	4.153000	384.695000	4.064000	13.160600	28.259000	0.000000	50.567999
1374.000000	-0.004166	-2.781574	37.840485	36.224983	0.000000	384.430000	4.270000	384.650000	4.190000	13.157000	31.400000	0.000000	50.575837
