Timestamp [sec]	Dyno Speed [mph]	Dyno Tractive Effort [N]	Cell Temp [C]	Cell RH [%]	Phase #	HV Battery Voltage w/500A max clamp [V]	HV Battery Current w/500A max clamp [A]	HV Battery Voltage w/200A max clamp [V]	HV Battery Current w/200A max clamp [A]	DCDC Outlet Voltage [V]	DCDC Outlet Current [A]	Accelerator Pedal Position [%]	Inverter Cooling Hose Temp [C]
-10.000000	-0.004490	-2.716720	39.077839	31.043027	1.000000	0.000000	0.000000	0.000000	0.000000	0.000000	0.000000	0.000000	0.000000
-9.000000	-0.005786	-2.695101	39.080432	31.076737	1.000000	0.000000	0.000000	0.000000	0.000000	12.679000	0.000000	0.000000	49.330342
-8.000000	-0.005786	-2.738338	39.080432	31.085813	1.000000	0.000000	0.000000	0.000000	0.000000	12.679600	0.000000	0.000000	49.338773
-7.000000	-0.004814	-2.738338	39.077839	31.096186	1.000000	0.000000	0.000000	0.000000	0.000000	12.661400	0.000000	0.000000	49.318143
-6.000000	-0.004814	-2.738338	39.077515	31.103641	1.000000	0.000000	0.000000	0.000000	0.000000	12.619600	0.000000	0.000000	49.313202
-5.000000	-0.005138	-2.759956	39.079460	31.105586	1.000000	0.000000	0.000000	0.000000	0.000000	12.592800	0.000000	0.000000	49.305357
-4.000000	-0.004166	-2.759956	39.075895	31.109799	1.000000	0.000000	0.000000	0.000000	0.000000	12.582600	0.000000	0.000000	49.317557
-3.000000	-0.005786	-2.738338	39.076219	31.111744	1.000000	0.000000	0.000000	0.000000	0.000000	12.582600	0.000000	0.000000	49.341090
-2.000000	-0.007083	-2.738338	39.073626	31.106882	1.000000	0.000000	0.000000	0.000000	0.000000	12.542400	0.000000	0.000000	49.311164
-1.000000	-0.004490	-2.738338	39.071358	31.091324	1.000000	0.000000	0.000000	0.000000	0.000000	12.491200	0.000000	0.000000	49.309713
0.000000	-0.004814	-2.738338	39.071034	31.075765	1.000000	229.452000	0.966000	229.572000	0.942000	13.390400	23.604000	0.000000	49.312616
1.000000	-0.004490	-2.738338	39.069089	31.063124	1.000000	382.432000	1.520000	382.644000	1.480000	14.034200	36.964000	0.000000	49.312616
2.000000	-0.005786	-2.759956	39.068441	31.053400	1.000000	382.440000	1.514000	382.660000	1.468000	14.113400	36.436000	0.000000	49.314068
3.000000	-0.004814	-2.781574	39.069089	31.040758	1.000000	382.326000	2.702000	382.564000	2.628000	14.212800	42.078000	0.000000	49.326268
4.000000	-0.005786	-2.673483	39.068117	31.031359	1.000000	382.208000	3.824000	382.482000	3.734000	14.287600	43.078000	0.000000	49.312616
5.000000	-0.005138	-2.716720	39.067793	31.037841	1.000000	382.174000	4.126000	382.452000	4.042000	14.341800	40.878000	0.000000	49.315520
6.000000	-0.006111	-2.738338	39.066172	31.044972	1.000000	382.146000	4.248000	382.428000	4.174000	14.363600	40.064000	0.000000	49.310579
7.000000	-0.005138	-2.738338	39.068765	31.056317	1.000000	382.130000	4.372000	382.384000	4.284000	14.363400	40.144000	0.000000	49.304187
8.000000	-0.004166	-2.738338	39.067145	31.086786	1.000000	382.112000	4.402000	382.372000	4.320000	14.363000	40.930000	0.000000	49.268453
9.000000	-0.005462	-2.716720	39.067793	31.108827	1.000000	382.124000	4.390000	382.380000	4.314000	14.362400	41.880000	0.000000	49.249275
10.000000	-0.006759	-2.738338	39.066496	31.125034	1.000000	382.116000	4.414000	382.380000	4.334000	14.361400	42.908000	0.000000	49.217895
11.000000	-0.004814	-2.738338	39.068441	31.146427	1.000000	382.106000	4.364000	382.362000	4.278000	14.361600	43.124000	0.000000	49.131597
12.000000	-0.004814	-2.738338	39.066820	31.189213	1.000000	382.122000	4.302000	382.368000	4.224000	14.362000	42.854000	0.000000	48.954045
13.000000	-0.004166	-2.759956	39.066820	31.221626	1.000000	382.124000	4.326000	382.380000	4.238000	14.361400	43.544000	0.000000	48.704390
14.000000	-0.004166	-2.738338	39.067145	31.250798	1.000000	382.114000	4.332000	382.380000	4.238000	14.361600	43.370000	0.000000	48.492483
15.000000	-0.005138	-2.738338	39.067793	31.273164	1.000000	382.080000	4.446000	382.344000	4.356000	14.361400	43.030000	0.000000	48.308455
16.000000	-0.005786	-2.738338	39.065524	31.298446	1.000000	382.066000	4.494000	382.338000	4.410000	14.361000	43.206000	0.000000	48.204948
17.000000	-0.004814	-2.738338	39.065200	31.335722	1.000000	382.076000	4.488000	382.338000	4.402000	14.362800	41.986000	0.000000	48.140687
18.000000	-0.004490	-2.716720	39.065848	31.357439	1.000000	382.080000	4.440000	382.336000	4.350000	14.367000	38.910000	0.000000	48.192153
19.000000	-0.005462	-2.759956	39.063904	31.375266	1.000000	382.032000	5.054000	382.304000	4.976000	14.357600	35.156000	0.000000	48.239256
20.000000	0.462243	854.365049	39.063580	31.389204	1.000000	381.526000	10.722000	381.812000	10.628000	14.350600	33.052000	6.500000	48.344215
21.000000	3.043860	2431.743307	39.062931	31.407032	1.000000	380.826000	18.626000	381.092000	18.492000	14.351000	32.402000	15.000000	48.369218
22.000000	5.781379	2055.697712	39.062607	31.425183	1.000000	379.898000	29.136000	380.124000	28.908000	14.289200	31.582000	17.500000	48.388406
23.000000	8.723093	2442.061042	39.061959	31.434259	1.000000	378.940000	39.214000	379.168000	38.886000	14.188000	31.414000	22.000000	48.424165
24.000000	11.727363	2301.700933	39.062283	31.448197	1.000000	378.342000	44.580000	378.594000	44.208000	14.089200	29.382000	22.000000	48.529109
25.000000	14.375100	2048.191945	39.057746	31.466348	1.000000	378.008000	46.958000	378.274000	46.554000	14.051800	26.890000	22.000000	48.670962
26.000000	16.691263	1809.889280	39.057422	31.483203	1.000000	379.442000	28.906000	379.694000	28.630000	14.001400	26.120000	13.000000	48.918588
27.000000	17.345337	401.186297	39.057098	31.498762	1.000000	379.798000	24.822000	380.056000	24.600000	13.905200	26.120000	5.500000	49.192612
28.000000	18.172167	1114.860192	39.055478	31.510755	1.000000	378.252000	42.958000	378.516000	42.606000	13.832800	26.160000	21.000000	49.418650
29.000000	20.159996	1622.288458	39.053857	31.529555	1.000000	378.000000	44.236000	378.254000	43.876000	13.750800	25.962000	22.000000	49.644653
30.000000	21.679148	1114.968344	39.048348	31.547382	1.000000	379.178000	29.152000	379.416000	28.904000	13.680000	25.968000	15.500000	49.805854
31.000000	22.369199	513.772571	39.044459	31.559051	1.000000	380.266000	15.814000	380.532000	15.674000	13.600600	25.862000	10.500000	49.917088
32.000000	22.497875	-102.787751	39.042190	31.570072	1.000000	381.426000	2.692000	381.704000	2.622000	13.529800	25.622000	0.000000	49.979816
33.000000	21.789348	-387.500515	39.036032	31.586603	1.000000	381.748000	0.190000	382.030000	0.134000	13.449000	25.322000	0.500000	50.033250
34.000000	21.346600	-167.707452	39.026958	31.607671	1.000000	381.582000	2.822000	381.842000	2.732000	13.377800	25.290000	2.500000	50.048931
35.000000	20.966083	-151.580214	39.018532	31.622258	1.000000	381.840000	0.040000	382.086000	-0.004000	13.297600	24.866000	1.500000	50.034702
36.000000	20.375536	-356.716084	39.011078	31.640409	1.000000	382.056000	-1.836000	382.306000	-1.872000	13.202800	24.314000	0.000000	50.014084
37.000000	19.717896	-369.968089	39.003948	31.655319	1.000000	383.370000	-17.208000	383.596000	-17.136000	13.166000	24.620000	0.000000	49.976332
38.000000	16.446228	-2624.885060	38.984827	31.693567	1.000000	382.988000	-11.008000	383.222000	-10.944000	13.166000	24.386000	0.000000	49.944968
39.000000	15.008431	-183.142905	38.976725	31.715933	1.000000	381.638000	5.562000	381.894000	5.520000	13.166000	24.120000	4.500000	49.897921
40.000000	15.153312	300.561646	38.963762	31.739919	1.000000	381.110000	10.890000	381.370000	10.802000	13.164800	25.128000	6.500000	49.871492
41.000000	15.441131	265.174303	38.950150	31.764229	1.000000	381.056000	11.154000	381.304000	11.054000	13.163400	26.348000	5.000000	49.853777
42.000000	15.538367	204.025148	38.933298	31.800532	1.000000	380.812000	13.772000	381.070000	13.660000	13.162400	26.752000	5.500000	49.830252
43.000000	15.949352	572.390982	38.917093	31.838456	1.000000	379.852000	24.928000	380.098000	24.724000	13.162600	26.490000	11.000000	49.820958
44.000000	17.094468	1176.571790	38.903806	31.869249	1.000000	378.734000	37.086000	378.976000	36.790000	13.162400	26.286000	16.500000	49.848840
45.000000	18.747481	1541.477145	38.893435	31.902311	1.000000	377.394000	51.586000	377.632000	51.170000	13.162000	26.216000	21.000000	49.842451
46.000000	20.919086	1866.972027	38.875287	31.945421	1.000000	377.172000	51.984000	377.408000	51.564000	13.162000	26.210000	25.500000	49.867429
47.000000	22.633357	920.619017	38.856490	31.985938	1.000000	379.528000	22.726000	379.762000	22.490000	13.162600	26.218000	11.500000	49.903730
48.000000	22.760737	20.945417	38.842554	32.015758	1.000000	380.764000	8.692000	381.000000	8.576000	13.162400	26.402000	5.500000	49.948746
49.000000	22.685541	106.277355	38.831859	32.046875	1.000000	380.894000	7.784000	381.134000	7.672000	13.162000	26.566000	6.000000	50.024250
50.000000	22.453795	-334.600583	38.816951	32.076047	1.000000	381.572000	0.544000	381.812000	0.472000	13.162000	27.268000	0.000000	50.082039
51.000000	21.671693	-451.036640	38.793941	32.125316	1.000000	383.606000	-22.920000	383.804000	-22.792000	13.162600	27.462000	0.000000	50.143307
52.000000	19.097206	-2215.261524	38.780330	32.153840	1.000000	384.070000	-26.796000	384.288000	-26.640000	13.163000	27.254000	0.000000	50.171184
53.000000	16.874390	-1182.015529	38.768663	32.186578	1.000000	382.646000	-8.232000	382.896000	-8.192000	13.163000	26.672000	0.000000	50.224610
54.000000	16.013527	-322.840238	38.756348	32.219315	1.000000	381.672000	3.516000	381.916000	3.462000	13.163600	26.180000	0.000000	50.251033
55.000000	15.948379	498.717807	38.731717	32.281225	1.000000	379.834000	24.508000	380.092000	24.292000	13.162800	26.166000	14.000000	50.296617
56.000000	17.412754	1409.834326	38.716809	32.328873	1.000000	378.006000	44.560000	378.264000	44.188000	13.162600	26.270000	19.000000	50.318105
57.000000	19.380812	1652.419659	38.703198	32.365176	1.000000	377.246000	51.884000	377.496000	51.434000	13.163000	26.418000	22.000000	50.370073
58.000000	21.334932	1599.295302	38.690559	32.398562	1.000000	377.316000	49.330000	377.554000	48.902000	13.163000	26.364000	22.500000	50.402880
59.000000	22.969794	1190.458523	38.664956	32.461769	1.000000	377.942000	40.696000	378.178000	40.356000	13.163600	26.322000	17.500000	50.407814
60.000000	24.051383	911.339567	38.645835	32.512658	1.000000	378.544000	32.696000	378.796000	32.414000	13.162800	26.482000	15.500000	50.440621
61.000000	24.831541	600.813341	38.634168	32.557713	1.000000	379.334000	22.896000	379.612000	22.692000	13.162600	26.600000	10.500000	50.471398
62.000000	25.107043	301.816209	38.617640	32.598230	1.000000	380.180000	13.216000	380.440000	13.080000	13.162400	26.602000	7.500000	50.494912
63.000000	25.058749	70.089691	38.600139	32.644257	1.000000	380.558000	9.338000	380.798000	9.236000	13.162600	26.560000	6.000000	50.496941
64.000000	24.936231	24.254869	38.574860	32.710381	1.000000	380.814000	6.820000	381.060000	6.706000	13.163000	26.558000	4.000000	50.506232
65.000000	24.664619	-64.912520	38.561897	32.755111	1.000000	380.608000	9.660000	380.852000	9.530000	13.163000	26.540000	6.000000	50.501298
66.000000	24.667536	159.574668	38.546341	32.800166	1.000000	380.338000	13.010000	380.584000	12.880000	13.163000	26.514000	7.000000	50.483594
67.000000	24.710644	163.424880	38.527220	32.854621	1.000000	380.364000	12.540000	380.608000	12.404000	13.163000	26.390000	7.500000	50.485622
68.000000	24.715830	102.967903	38.503562	32.927227	1.000000	380.472000	11.382000	380.700000	11.266000	13.163600	26.424000	6.000000	50.455721
69.000000	24.662674	85.598690	38.485413	32.983303	1.000000	380.400000	12.332000	380.632000	12.208000	13.163400	26.524000	6.000000	50.428725
70.000000	24.620538	196.194942	38.469209	33.033544	1.000000	379.648000	21.286000	379.912000	21.086000	13.162400	26.486000	7.500000	50.436563
71.000000	25.077872	671.955765	38.453653	33.082488	1.000000	379.062000	27.448000	379.324000	27.196000	13.162600	26.474000	14.500000	50.395918
72.000000	25.736808	442.305701	38.427078	33.172598	1.000000	379.600000	20.396000	379.856000	20.208000	13.163000	26.592000	9.000000	50.406662
73.000000	25.841175	182.654309	38.407957	33.231590	1.000000	380.452000	10.282000	380.700000	10.178000	13.163000	26.564000	6.000000	50.394465
74.000000	25.652861	-37.370828	38.391753	33.285721	1.000000	380.944000	4.732000	381.196000	4.646000	13.163000	26.530000	4.000000	50.403182
75.000000	25.308321	-133.723513	38.376197	33.338555	1.000000	380.990000	4.948000	381.226000	4.834000	13.163000	26.550000	3.000000	50.417406
76.000000	25.103153	195.264835	38.351242	33.419265	1.000000	380.258000	13.602000	380.508000	13.448000	13.162400	26.532000	8.500000	50.411020
77.000000	25.373794	368.308078	38.330177	33.513264	1.000000	379.480000	22.488000	379.726000	22.270000	13.162600	26.550000	10.000000	50.425244
78.000000	25.811356	511.717682	38.315917	33.575822	1.000000	379.806000	17.854000	380.060000	17.682000	13.163000	26.504000	10.500000	50.435988
79.000000	25.939708	165.479769	38.299389	33.626712	1.000000	380.770000	6.306000	381.034000	6.216000	13.163600	26.364000	5.000000	50.421764
80.000000	25.554653	-137.528331	38.279296	33.696077	1.000000	380.198000	13.510000	380.464000	13.368000	13.163400	26.348000	9.000000	50.431056
81.000000	25.884283	393.420980	38.257582	33.779380	1.000000	379.538000	21.322000	379.784000	21.126000	13.163000	26.338000	10.500000	50.420312
82.000000	26.225906	398.590648	38.240405	33.842586	1.000000	379.128000	25.740000	379.370000	25.510000	13.163000	26.394000	10.500000	50.407540
83.000000	26.744822	613.683436	38.226470	33.898986	1.000000	378.836000	28.392000	379.092000	28.154000	13.163000	26.402000	13.000000	50.451092
84.000000	27.332128	601.094537	38.209942	33.955061	1.000000	378.184000	35.406000	378.444000	35.110000	13.163000	26.466000	15.500000	50.448186
85.000000	28.252306	873.464707	38.182070	34.054571	1.000000	377.544000	42.184000	377.822000	41.838000	13.163000	26.488000	17.500000	50.441800
86.000000	29.225963	874.243402	38.166514	34.120046	1.000000	378.036000	35.118000	378.308000	34.822000	13.163000	26.466000	16.000000	50.426123
87.000000	29.869018	603.906490	38.154199	34.182604	1.000000	378.682000	26.956000	378.912000	26.744000	13.163000	26.542000	13.000000	50.436868
88.000000	30.308849	469.386972	38.137347	34.242569	1.000000	378.686000	26.956000	378.926000	26.752000	13.163000	26.584000	12.500000	50.460383
89.000000	30.678670	453.034384	38.114013	34.342727	1.000000	379.178000	20.906000	379.426000	20.722000	13.163000	26.586000	10.500000	50.480992
90.000000	30.774286	163.511402	38.096188	34.434458	1.000000	380.044000	10.806000	380.296000	10.688000	13.163000	26.596000	6.500000	50.473154
91.000000	30.575600	-0.792692	38.081280	34.502202	1.000000	380.402000	7.048000	380.674000	6.958000	13.163000	26.534000	6.000000	50.469674
92.000000	30.385341	29.338013	38.065400	34.569622	1.000000	379.968000	13.116000	380.212000	12.984000	13.163000	26.478000	7.500000	50.461836
93.000000	30.338020	213.239701	38.043362	34.674318	1.000000	379.462000	18.994000	379.694000	18.822000	13.163000	26.506000	9.500000	50.453998
94.000000	30.480957	258.512138	38.022621	34.768641	1.000000	378.880000	25.778000	379.114000	25.544000	13.163000	26.434000	9.500000	50.427003
95.000000	30.769748	454.440360	38.008685	34.845461	1.000000	379.768000	14.884000	380.016000	14.704000	13.163600	26.388000	5.500000	50.427004
96.000000	30.479660	-75.008258	37.994101	34.917095	1.000000	380.626000	4.736000	380.880000	4.622000	13.163400	26.466000	5.000000	50.417712
97.000000	30.139658	-81.709926	37.975304	34.996185	1.000000	380.526000	6.376000	380.770000	6.284000	13.163000	26.546000	6.000000	50.414233
98.000000	29.954261	32.820508	37.950998	35.129728	1.000000	379.638000	17.276000	379.878000	17.118000	13.163000	26.558000	7.500000	50.384332
99.000000	30.184062	414.380845	37.935766	35.200390	1.000000	378.936000	25.152000	379.176000	24.930000	13.162400	26.538000	13.000000	50.385785
100.000000	30.583055	461.362091	37.920858	35.269755	1.000000	378.892000	24.974000	379.120000	24.750000	13.162600	26.596000	12.500000	50.370107
101.000000	30.924353	399.758690	37.905950	35.345603	1.000000	379.096000	22.080000	379.328000	21.890000	13.163000	26.586000	11.000000	50.345137
102.000000	31.117205	242.462377	37.884885	35.448354	1.000000	379.344000	18.872000	379.590000	18.714000	13.163600	26.562000	10.000000	50.321049
103.000000	31.213469	222.821970	37.868033	35.529063	1.000000	379.944000	11.716000	380.194000	11.614000	13.164000	26.600000	9.000000	50.346591
104.000000	31.047843	-55.400476	37.855393	35.590973	1.000000	380.610000	4.332000	380.854000	4.250000	13.163400	26.560000	3.500000	50.316688
105.000000	30.609308	-131.799486	37.841134	35.654180	1.000000	380.662000	4.556000	380.890000	4.430000	13.163000	26.688000	4.000000	50.323074
106.000000	30.289077	0.980556	37.821364	35.757903	1.000000	379.968000	13.234000	380.212000	13.072000	13.163000	26.704000	8.500000	50.311756
107.000000	30.385341	252.628668	37.805808	35.833103	1.000000	379.658000	16.434000	379.906000	16.270000	13.163000	26.640000	9.000000	50.313210
108.000000	30.481281	239.304338	37.792197	35.896633	1.000000	379.320000	20.046000	379.560000	19.868000	13.163000	26.544000	9.500000	50.264721
109.000000	30.748356	423.941485	37.783123	35.962757	1.000000	378.820000	25.294000	379.084000	25.092000	13.162400	26.570000	12.000000	50.276921
110.000000	31.136976	510.787575	37.764650	36.044115	1.000000	378.654000	26.822000	378.904000	26.576000	13.162600	26.516000	13.000000	50.272560
111.000000	31.576807	482.797826	37.750066	36.148487	1.000000	378.686000	26.060000	378.928000	25.826000	13.163600	26.392000	12.500000	50.254857
112.000000	31.918754	442.868092	37.740019	36.215259	1.000000	378.902000	23.210000	379.146000	23.018000	13.164000	26.498000	12.500000	50.245564
113.000000	32.133322	319.142164	37.725760	36.274900	1.000000	379.474000	16.108000	379.720000	15.964000	13.163400	26.530000	10.500000	50.240632
114.000000	32.137211	89.989661	37.711824	36.355285	1.000000	380.934000	-1.106000	381.172000	-1.136000	13.163000	26.904000	0.000000	50.227861
115.000000	31.316215	-524.171281	37.693027	36.466788	1.000000	383.612000	-31.734000	383.830000	-31.536000	13.163000	27.258000	0.000000	50.256311
116.000000	29.032463	-1511.932128	37.680712	36.544256	1.000000	385.606000	-53.152000	385.822000	-52.788000	13.163000	27.178000	0.000000	50.243540
117.000000	26.114733	-2291.293069	37.670341	36.613621	1.000000	386.828000	-64.552000	387.030000	-64.080000	13.163600	27.150000	0.000000	50.213636
118.000000	22.070037	-3006.448231	37.657054	36.681041	1.000000	386.192000	-53.842000	386.388000	-53.436000	13.164000	27.106000	0.000000	50.204343
119.000000	18.617184	-2329.449363	37.638581	36.786061	1.000000	385.014000	-38.454000	385.238000	-38.178000	13.163400	27.188000	0.000000	50.216544
120.000000	15.422656	-2380.122652	37.625942	36.846351	1.000000	384.370000	-30.378000	384.604000	-30.168000	13.163600	27.250000	0.000000	50.207250
121.000000	12.192475	-2356.904600	37.616543	36.892378	1.000000	383.710000	-22.062000	383.940000	-21.914000	13.164000	27.116000	0.000000	50.247902
122.000000	8.992113	-2250.131834	37.606172	36.929653	1.000000	382.938000	-12.214000	383.156000	-12.154000	13.162800	27.868000	0.000000	50.309163
123.000000	5.934688	-2052.800052	37.590292	36.985729	1.000000	381.980000	-1.000000	382.220000	-1.040000	13.158400	31.792000	0.000000	50.314094
124.000000	3.078217	-2276.289971	37.578301	37.034673	1.000000	381.458000	4.476000	381.718000	4.384000	13.159000	31.160000	0.000000	50.343427
125.000000	0.648612	-1379.066163	37.570523	37.063521	1.000000	381.378000	4.786000	381.614000	4.686000	13.160400	29.240000	0.000000	50.368398
126.000000	0.003937	-1.052112	37.563393	37.092045	1.000000	381.394000	4.192000	381.626000	4.092000	13.155800	33.008000	0.000000	50.386984
127.000000	-0.001897	-3.192322	37.553671	37.115059	1.000000	381.428000	3.804000	381.644000	3.716000	13.155400	33.456000	0.000000	50.394822
128.000000	-0.004166	-3.062612	37.546217	37.131590	1.000000	381.422000	3.662000	381.652000	3.588000	13.159400	30.298000	0.000000	50.347790
129.000000	-0.003842	-2.954521	37.541356	37.144555	1.000000	381.428000	3.520000	381.642000	3.450000	13.160400	29.080000	0.000000	50.313525
130.000000	-0.004166	-2.824811	37.539411	37.152659	1.000000	381.422000	3.466000	381.642000	3.384000	13.160000	29.048000	0.000000	50.275783
131.000000	-0.003193	-2.911284	37.533902	37.169838	1.000000	381.416000	3.500000	381.650000	3.422000	13.160600	29.004000	0.000000	50.255174
132.000000	-0.003518	-2.846429	37.532929	37.210355	1.000000	381.414000	3.460000	381.662000	3.390000	13.161000	28.998000	0.000000	50.205228
133.000000	-0.004166	-2.759956	37.530337	37.233693	1.000000	381.410000	3.462000	381.664000	3.386000	13.161000	28.992000	0.000000	50.181141
134.000000	-0.003842	-2.738338	37.531633	37.255734	1.000000	381.410000	3.454000	381.648000	3.374000	13.160400	29.028000	0.000000	50.140486
135.000000	-0.004166	-2.738338	37.530661	37.276479	1.000000	381.404000	3.418000	381.640000	3.350000	13.160000	29.096000	0.000000	50.109126
136.000000	-0.004166	-2.738338	37.530661	37.303382	1.000000	381.412000	3.440000	381.640000	3.386000	13.160600	29.084000	0.000000	50.071379
137.000000	-0.004166	-2.738338	37.532281	37.318940	1.000000	381.432000	3.448000	381.652000	3.368000	13.161000	29.012000	0.000000	50.071379
138.000000	-0.004166	-2.803193	37.536170	37.332230	1.000000	381.428000	3.464000	381.648000	3.388000	13.160400	29.076000	0.000000	50.047858
139.000000	-0.003842	-2.738338	37.538439	37.345520	1.000000	381.432000	3.438000	381.652000	3.372000	13.160600	29.032000	0.000000	50.064993
140.000000	-0.005138	-2.738338	37.538115	37.375988	1.000000	381.434000	3.404000	381.666000	3.328000	13.161000	29.032000	0.000000	50.036541
141.000000	-0.004166	-2.738338	37.539411	37.403864	1.000000	381.424000	3.430000	381.652000	3.356000	13.161000	29.152000	0.000000	50.030155
142.000000	-0.004166	-2.738338	37.541032	37.419747	1.000000	381.432000	3.438000	381.640000	3.356000	13.161000	29.056000	0.000000	50.037996
143.000000	-0.004814	-2.738338	37.543948	37.429471	1.000000	381.434000	3.442000	381.658000	3.358000	13.160400	29.092000	0.000000	50.048746
144.000000	-0.004490	-2.716720	37.550106	37.431091	1.000000	381.436000	3.420000	381.670000	3.340000	13.160000	29.252000	0.000000	50.031610
145.000000	-0.004166	-2.738338	37.552699	37.426553	1.000000	381.428000	3.388000	381.670000	3.314000	13.160000	29.342000	0.000000	50.040905
146.000000	-0.004166	-2.738338	37.558532	37.424284	1.000000	381.444000	3.392000	381.670000	3.322000	13.160600	29.196000	0.000000	50.056587
147.000000	-0.005138	-2.759956	37.559180	37.426553	1.000000	381.454000	3.400000	381.670000	3.324000	13.160400	29.158000	0.000000	50.058041
148.000000	-0.004490	-2.738338	37.565014	37.433684	1.000000	381.456000	3.412000	381.676000	3.338000	13.160600	29.108000	0.000000	50.075177
149.000000	-0.004490	-2.738338	37.571820	37.448919	1.000000	381.454000	3.396000	381.668000	3.332000	13.161000	29.010000	0.000000	50.073722
150.000000	-0.004166	-2.738338	37.576033	37.462857	1.000000	381.438000	3.398000	381.666000	3.308000	13.161000	29.068000	0.000000	50.073722
151.000000	-0.004166	-2.738338	37.580570	37.475498	1.000000	381.454000	3.410000	381.676000	3.306000	13.161000	29.150000	0.000000	50.056021
152.000000	-0.004490	-2.738338	37.584783	37.484898	1.000000	381.482000	3.374000	381.692000	3.298000	13.161000	29.134000	0.000000	50.068792
153.000000	-0.004490	-2.759956	37.592237	37.495594	1.000000	381.460000	3.368000	381.694000	3.290000	13.161000	28.954000	0.000000	50.060951
154.000000	-0.005138	-2.781574	37.597746	37.502725	1.000000	381.458000	3.350000	381.702000	3.266000	13.161000	28.904000	0.000000	50.063861
155.000000	-0.004814	-2.738338	37.601959	37.508560	1.000000	381.476000	3.330000	381.704000	3.250000	13.161000	29.042000	0.000000	50.049636
156.000000	-0.005138	-2.738338	37.605848	37.521201	1.000000	381.468000	3.324000	381.700000	3.250000	13.161000	29.158000	0.000000	50.024659
157.000000	-0.004166	-2.738338	37.614599	37.539353	1.000000	381.466000	3.308000	381.706000	3.238000	13.161000	28.998000	0.000000	50.021184
158.000000	-0.004490	-2.824811	37.623349	37.566580	1.000000	381.470000	3.300000	381.716000	3.224000	13.161000	29.230000	0.000000	50.036865
159.000000	-0.004814	-2.738338	37.624645	37.587973	1.000000	381.476000	3.312000	381.702000	3.226000	13.161000	29.170000	0.000000	50.009868
160.000000	-0.004166	-2.738338	37.630803	37.610014	1.000000	381.480000	3.308000	381.696000	3.230000	13.161600	28.892000	0.000000	50.024094
161.000000	-0.004490	-2.738338	37.637609	37.632380	1.000000	381.486000	3.282000	381.712000	3.212000	13.161400	28.864000	0.000000	50.008413
162.000000	-0.004814	-2.738338	37.645711	37.664469	1.000000	381.406000	4.314000	381.636000	4.238000	13.161600	28.436000	0.000000	50.016254
163.000000	0.912770	1233.286768	37.650248	37.686834	1.000000	380.774000	11.658000	381.016000	11.548000	13.162000	28.026000	8.000000	50.006958
164.000000	3.718678	2365.510809	37.655433	37.704986	1.000000	379.742000	23.338000	379.998000	23.142000	13.162000	28.118000	16.500000	50.009305
165.000000	6.864913	2698.511985	37.662563	37.735131	1.000000	378.578000	36.228000	378.832000	35.928000	13.161400	28.188000	23.000000	50.003483
166.000000	10.278546	2616.099849	37.672610	37.777916	1.000000	377.736000	44.768000	377.986000	44.392000	13.161600	28.082000	23.000000	50.011324
167.000000	13.328516	2369.772012	37.675527	37.807413	1.000000	377.074000	50.984000	377.330000	50.554000	13.163200	26.986000	25.000000	50.020620
168.000000	16.170726	2197.506993	37.682008	37.834316	1.000000	376.274000	58.856000	376.516000	58.388000	13.164000	26.032000	26.500000	50.094095
169.000000	18.949408	2219.137454	37.688490	37.865433	1.000000	375.642000	64.458000	375.872000	63.942000	13.163400	26.100000	28.000000	50.161745
170.000000	21.544314	2047.348357	37.696916	37.921509	1.000000	375.318000	66.414000	375.566000	65.856000	13.163600	26.182000	28.500000	50.207329
171.000000	23.935996	1899.915200	37.700157	37.979853	1.000000	375.518000	62.430000	375.766000	61.902000	13.163400	26.274000	28.000000	50.282250
172.000000	25.894655	1451.970408	37.706639	38.028797	1.000000	378.896000	20.994000	379.124000	20.788000	13.163600	26.490000	19.000000	50.307223
173.000000	25.773110	-374.529547	37.707935	38.085521	1.000000	381.176000	-4.788000	381.402000	-4.816000	13.164000	26.378000	0.000000	50.347874
174.000000	25.041571	-409.140413	37.712148	38.185679	1.000000	381.310000	-4.456000	381.540000	-4.478000	13.164000	26.346000	2.000000	50.369935
175.000000	24.469822	-253.142900	37.712796	38.272872	1.000000	380.418000	7.146000	380.660000	7.058000	13.164000	26.230000	6.000000	50.377774
176.000000	24.613408	355.675920	37.712472	38.347747	1.000000	379.642000	16.546000	379.898000	16.388000	13.164000	26.086000	10.000000	50.394907
177.000000	24.902523	290.590029	37.714741	38.413547	1.000000	379.668000	16.066000	379.922000	15.914000	13.164000	26.160000	8.500000	50.350784
178.000000	25.056804	263.768326	37.712148	38.482587	1.000000	379.802000	14.330000	380.040000	14.202000	13.164000	26.052000	8.000000	50.339473
179.000000	25.159874	218.041650	37.708583	38.601545	1.000000	379.200000	21.892000	379.436000	21.688000	13.164000	25.928000	8.500000	50.320884
180.000000	25.702776	853.889180	37.703722	38.677717	1.000000	377.568000	40.778000	377.790000	40.410000	13.164000	26.112000	19.000000	50.251786
181.000000	26.974624	1165.107666	37.699509	38.751944	1.000000	379.526000	16.182000	379.760000	16.006000	13.164000	26.066000	0.000000	50.214044
182.000000	26.313418	-422.241091	37.694972	38.830709	1.000000	382.636000	-20.482000	382.856000	-20.374000	13.164000	26.574000	0.000000	50.185597
183.000000	24.489594	-1442.602295	37.682332	38.938322	1.000000	382.634000	-18.456000	382.870000	-18.360000	13.163400	27.248000	0.000000	50.185597
184.000000	23.077402	-1156.160066	37.676499	39.010604	1.000000	384.584000	-39.934000	384.814000	-39.672000	13.163600	27.180000	0.000000	50.152781
185.000000	19.335435	-2991.488357	37.668073	39.056632	1.000000	384.196000	-32.850000	384.406000	-32.626000	13.164000	26.960000	0.000000	50.167005
186.000000	17.455214	-408.145972	37.660943	39.099418	1.000000	381.914000	-4.640000	382.136000	-4.636000	13.164000	26.488000	0.000000	50.125788
187.000000	17.101275	128.232214	37.649600	39.144797	1.000000	379.828000	19.432000	380.064000	19.240000	13.164000	26.086000	10.500000	50.160621
188.000000	18.264218	1176.182443	37.640525	39.174941	1.000000	379.188000	25.508000	379.422000	25.300000	13.164000	25.962000	16.500000	50.122877
189.000000	19.118598	638.666561	37.634044	39.194065	1.000000	378.982000	26.822000	379.230000	26.608000	13.164000	26.128000	12.000000	50.161517
190.000000	20.138604	1090.828792	37.627886	39.218375	1.000000	377.262000	46.352000	377.516000	45.970000	13.163400	26.272000	19.000000	50.152221
191.000000	22.105690	1792.974272	37.615571	39.243334	1.000000	375.878000	60.934000	376.122000	60.434000	13.163000	26.172000	26.000000	50.146397
192.000000	24.258496	1743.981317	37.607145	39.270237	1.000000	374.798000	71.504000	375.062000	70.912000	13.163000	26.214000	28.000000	50.152221
193.000000	26.623925	2052.280101	37.599691	39.285796	1.000000	373.130000	88.780000	373.386000	88.050000	13.163600	26.284000	35.000000	50.147293
194.000000	29.448958	2357.485906	37.592885	39.299409	1.000000	371.014000	110.704000	371.284000	109.806000	13.163400	26.214000	41.500000	50.158045
195.000000	32.611400	2626.915089	37.585755	39.306216	1.000000	369.480000	125.188000	369.782000	124.176000	13.162400	26.254000	48.000000	50.178652
196.000000	35.694757	2489.042429	37.574412	39.336037	1.000000	372.066000	90.988000	372.328000	90.230000	13.163200	26.214000	44.000000	50.194332
197.000000	37.392824	1154.314084	37.566310	39.366181	1.000000	372.564000	84.278000	372.806000	83.570000	13.163400	26.174000	25.000000	50.215836
198.000000	39.135619	1619.368349	37.555939	39.401512	1.000000	372.550000	83.666000	372.818000	82.956000	13.163000	26.112000	28.000000	50.242826
199.000000	40.478775	1216.609707	37.550430	39.438464	1.000000	373.150000	75.654000	373.394000	74.998000	13.162400	26.252000	26.500000	50.284935
200.000000	41.769099	1204.388517	37.528392	39.510098	1.000000	372.810000	78.610000	373.054000	77.926000	13.162600	26.338000	28.500000	50.278552
201.000000	43.098966	1242.587849	37.514781	39.561635	1.000000	372.058000	86.288000	372.300000	85.534000	13.162400	26.334000	29.000000	50.325587
202.000000	44.529634	1374.187376	37.502466	39.615118	1.000000	371.756000	88.328000	372.004000	87.574000	13.162600	26.266000	31.500000	50.319204
203.000000	45.879597	1183.817983	37.486909	39.670545	1.000000	373.048000	70.918000	373.326000	70.314000	13.163000	26.216000	29.000000	50.295686
204.000000	46.783245	801.586835	37.461631	39.749310	1.000000	374.348000	55.466000	374.590000	54.970000	13.163000	26.178000	21.000000	50.289303
205.000000	47.320962	679.396627	37.443158	39.832613	1.000000	375.500000	42.496000	375.722000	42.106000	13.163000	26.174000	17.000000	50.282920
206.000000	47.524509	427.142785	37.422741	39.888688	1.000000	376.618000	29.730000	376.854000	29.442000	13.163000	26.142000	16.000000	50.254475
207.000000	47.481401	146.920882	37.403620	39.937308	1.000000	377.476000	20.574000	377.740000	20.362000	13.163600	26.140000	11.000000	50.237340
208.000000	47.282067	131.671448	37.376721	40.011211	1.000000	377.668000	19.540000	377.930000	19.336000	13.164000	26.070000	11.500000	50.208894
209.000000	47.135889	193.253207	37.350146	40.073770	1.000000	377.550000	21.986000	377.782000	21.760000	13.163400	26.016000	12.500000	50.210351
210.000000	47.060044	220.010017	37.327460	40.117852	1.000000	377.434000	23.694000	377.660000	23.452000	13.163600	26.074000	13.000000	50.154015
211.000000	46.989062	247.091284	37.305098	40.151886	1.000000	377.292000	25.390000	377.528000	25.134000	13.164000	26.152000	13.000000	50.127583
212.000000	46.988738	279.536892	37.287922	40.186893	1.000000	377.216000	26.354000	377.450000	26.106000	13.164000	26.108000	14.000000	50.066317
213.000000	46.989062	287.475250	37.251300	40.251396	1.000000	376.966000	29.504000	377.214000	29.216000	13.164600	25.970000	14.000000	50.047165
214.000000	47.058424	360.412979	37.233152	40.300016	1.000000	376.312000	37.250000	376.548000	36.888000	13.163800	25.976000	16.000000	50.015803
215.000000	47.327444	548.251444	37.214355	40.342802	1.000000	375.482000	46.588000	375.708000	46.168000	13.163600	26.044000	19.000000	49.962374
216.000000	47.791261	655.495022	37.194910	40.382995	1.000000	374.850000	53.096000	375.074000	52.632000	13.164000	25.982000	20.500000	49.929553
217.000000	48.347776	751.036556	37.167362	40.444905	1.000000	374.452000	56.758000	374.672000	56.254000	13.164000	25.930000	22.500000	49.915327
218.000000	48.986294	764.901651	37.145649	40.494498	1.000000	374.302000	57.186000	374.540000	56.672000	13.164000	25.834000	22.500000	49.860438
219.000000	49.567767	721.446150	37.130741	40.535015	1.000000	374.452000	54.506000	374.678000	54.014000	13.165800	23.838000	21.000000	49.849125
220.000000	50.042604	664.839360	37.119074	40.584607	1.000000	374.434000	54.082000	374.686000	53.590000	13.168200	21.638000	21.000000	49.850582
221.000000	50.505124	656.814477	37.092499	40.673096	1.000000	374.296000	55.292000	374.546000	54.810000	13.169000	21.078000	21.000000	49.844198
222.000000	50.948522	663.714578	37.074674	40.737600	1.000000	374.182000	56.132000	374.406000	55.638000	13.169600	21.032000	21.500000	49.836356
223.000000	51.436648	700.334867	37.064628	40.788489	1.000000	373.794000	60.078000	374.020000	59.556000	13.170000	20.956000	22.000000	49.824143
224.000000	52.023955	817.160734	37.053933	40.838730	1.000000	372.784000	71.262000	373.026000	70.654000	13.169400	21.018000	25.500000	49.798605
225.000000	52.773322	955.811707	37.041294	40.900964	1.000000	371.768000	81.448000	372.018000	80.752000	13.169000	21.040000	29.000000	49.820673
226.000000	53.701929	1061.173484	37.022173	40.981998	1.000000	371.818000	78.598000	372.092000	77.908000	13.169000	20.954000	30.000000	49.806447
227.000000	54.510611	872.707642	37.013098	41.022515	1.000000	372.952000	64.054000	373.224000	63.486000	13.169600	20.898000	24.500000	49.785835
228.000000	54.930348	602.587035	37.002728	41.059790	1.000000	373.924000	52.776000	374.184000	52.312000	13.169400	21.010000	20.500000	49.768694
229.000000	55.105373	449.660040	36.991709	41.102900	1.000000	374.822000	42.616000	375.088000	42.230000	13.169600	21.072000	18.000000	49.763767
230.000000	55.126441	345.769194	36.981338	41.164162	1.000000	376.198000	26.850000	376.462000	26.566000	13.170000	21.030000	14.500000	49.770151
231.000000	54.862931	208.913620	36.976477	41.207596	1.000000	376.146000	28.714000	376.376000	28.438000	13.169400	20.968000	15.000000	49.733856
232.000000	54.765694	309.170547	36.972264	41.248113	1.000000	375.522000	36.900000	375.738000	36.564000	13.169000	21.006000	16.000000	49.723099
233.000000	54.765370	409.297699	36.969671	41.282472	1.000000	374.690000	46.126000	374.946000	45.736000	13.169600	20.978000	18.500000	49.689717
234.000000	55.001006	583.811839	36.969023	41.309051	1.000000	373.976000	53.484000	374.238000	53.050000	13.170000	20.966000	22.000000	49.678959
235.000000	55.352029	627.137552	36.970967	41.323961	1.000000	373.742000	55.760000	373.986000	55.274000	13.169400	20.948000	21.500000	49.661817
236.000000	55.645359	598.585409	36.975505	41.333685	1.000000	373.780000	54.586000	374.020000	54.118000	13.169600	20.932000	21.500000	49.641204
237.000000	55.934799	573.515763	36.977773	41.352161	1.000000	373.906000	52.734000	374.134000	52.252000	13.169400	21.048000	20.500000	49.631349
238.000000	56.169787	547.580901	36.990412	41.377119	1.000000	374.028000	50.950000	374.242000	50.476000	13.169600	21.018000	20.500000	49.629892
239.000000	56.391161	546.304707	37.006293	41.396243	1.000000	374.458000	45.528000	374.686000	45.114000	13.169400	20.890000	20.000000	49.631349
240.000000	56.470571	385.244686	37.020876	41.410829	1.000000	374.620000	43.772000	374.860000	43.352000	13.169000	20.958000	18.000000	49.615664
241.000000	56.519189	406.377594	37.032543	41.429953	1.000000	374.758000	42.118000	374.992000	41.702000	13.169600	21.012000	18.000000	49.637734
242.000000	56.497797	309.732938	37.050368	41.434491	1.000000	374.902000	40.834000	375.144000	40.446000	13.169400	20.934000	16.000000	49.634265
243.000000	56.422601	341.313331	37.074998	41.428009	1.000000	375.108000	38.354000	375.358000	37.998000	13.169600	20.968000	17.000000	49.627880
244.000000	56.372038	353.253315	37.096712	41.418609	1.000000	375.072000	38.492000	375.298000	38.152000	13.170000	20.942000	17.500000	49.639192
245.000000	56.410285	390.025006	37.112592	41.415367	1.000000	374.780000	42.158000	375.008000	41.776000	13.170000	20.914000	17.500000	49.649950
246.000000	56.421953	390.890223	37.137547	41.417636	1.000000	374.954000	39.752000	375.170000	39.384000	13.169400	21.008000	17.500000	49.651408
247.000000	56.421953	384.422731	37.174168	41.400133	1.000000	375.354000	34.844000	375.584000	34.498000	13.169600	21.012000	17.500000	49.672020
248.000000	56.373335	289.681552	37.197502	41.398512	1.000000	375.376000	34.858000	375.620000	34.526000	13.170600	20.920000	16.000000	49.654324
249.000000	56.273830	295.348718	37.219216	41.406292	1.000000	375.882000	28.754000	376.134000	28.494000	13.169800	20.934000	16.000000	49.692079
250.000000	56.011616	-5.310914	37.239633	41.402078	1.000000	377.692000	7.822000	377.952000	7.698000	13.169600	20.958000	8.000000	49.657793
251.000000	55.308273	-177.133023	37.273338	41.403050	1.000000	378.556000	-1.188000	378.792000	-0.768000	13.170000	20.896000	6.500000	49.663624
252.000000	54.607199	-149.461622	37.299589	41.400457	1.000000	378.008000	7.032000	378.240000	7.250000	13.169400	21.034000	8.000000	49.647940
253.000000	54.087309	-13.007023	37.317738	41.397216	1.000000	377.248000	17.132000	377.476000	16.960000	13.169000	21.060000	10.500000	49.674383
254.000000	53.749251	157.974019	37.337831	41.361237	1.000000	376.378000	27.454000	376.598000	27.200000	13.169600	21.036000	14.000000	49.671467
255.000000	53.643263	327.383349	37.366674	41.323961	1.000000	375.834000	33.268000	376.072000	32.960000	13.170000	20.994000	16.000000	49.636628
256.000000	53.685075	373.823832	37.394545	41.307106	1.000000	375.556000	35.894000	375.800000	35.580000	13.169400	20.998000	16.500000	49.647939
257.000000	53.691557	371.509378	37.413666	41.295437	1.000000	375.188000	39.930000	375.416000	39.590000	13.169000	21.000000	17.000000	49.653772
258.000000	53.832874	469.105777	37.430195	41.297382	1.000000	374.774000	44.538000	374.994000	44.148000	13.169000	20.992000	18.500000	49.622401
259.000000	53.977756	456.387097	37.448668	41.282796	1.000000	375.336000	37.042000	375.562000	36.698000	13.169000	20.970000	17.000000	49.622401
260.000000	53.934324	302.183926	37.473946	41.283120	1.000000	376.018000	28.828000	376.260000	28.546000	13.169600	21.010000	15.000000	49.628234
261.000000	53.786849	203.852105	37.486909	41.268210	1.000000	376.648000	21.372000	376.886000	21.150000	13.169400	21.068000	14.000000	49.620943
262.000000	53.501298	61.761986	37.500197	41.247141	1.000000	377.214000	15.458000	377.444000	15.280000	13.169600	21.188000	10.500000	49.642461
263.000000	53.084479	25.855518	37.511216	41.208245	1.000000	377.814000	9.328000	378.038000	9.164000	13.170000	21.062000	10.500000	49.626776
264.000000	52.572043	-91.394916	37.529365	41.135314	1.000000	377.384000	15.312000	377.622000	15.140000	13.170000	20.996000	8.500000	49.645378
265.000000	52.279038	252.304212	37.541356	41.087990	1.000000	375.694000	35.004000	375.938000	34.686000	13.169400	21.034000	18.000000	49.622401
266.000000	52.359096	64.033179	37.553023	41.043260	1.000000	376.600000	24.190000	376.846000	23.942000	13.169000	20.982000	6.500000	49.626776
267.000000	51.839854	27.521059	37.561125	41.030942	1.000000	376.684000	23.894000	376.940000	23.652000	13.169000	20.968000	12.500000	49.625317
268.000000	51.739377	316.806080	37.574412	41.002418	1.000000	375.800000	34.352000	376.042000	34.042000	13.169600	20.962000	16.000000	49.629692
269.000000	51.783457	343.865718	37.578625	40.968060	1.000000	376.034000	30.936000	376.264000	30.650000	13.170000	20.944000	15.000000	49.616924
270.000000	51.689786	257.906486	37.582190	40.938564	1.000000	376.288000	27.762000	376.512000	27.504000	13.170000	21.006000	14.000000	49.629692
271.000000	51.590281	278.066024	37.585431	40.896750	1.000000	375.574000	36.236000	375.800000	35.920000	13.170000	21.014000	16.000000	49.628234
272.000000	51.730301	481.370219	37.585431	40.851695	1.000000	374.844000	44.374000	375.092000	43.972000	13.170000	21.002000	18.500000	49.638443
273.000000	51.933849	482.148913	37.589320	40.796268	1.000000	374.404000	48.920000	374.658000	48.472000	13.169400	21.028000	18.500000	49.636985
274.000000	52.200277	600.034647	37.585107	40.762234	1.000000	373.656000	56.770000	373.906000	56.280000	13.169600	20.956000	22.000000	49.638443
275.000000	52.715305	739.226350	37.581542	40.732737	1.000000	372.980000	63.476000	373.236000	62.924000	13.169400	20.834000	23.000000	49.659054
276.000000	53.294509	789.149346	37.575709	40.696758	1.000000	372.192000	71.644000	372.470000	71.028000	13.169000	20.862000	24.500000	49.641361
277.000000	53.978728	969.914740	37.565338	40.644573	1.000000	371.488000	78.242000	371.742000	77.578000	13.169000	20.892000	28.500000	49.661971
278.000000	54.803616	974.305715	37.555939	40.610538	1.000000	371.730000	73.470000	371.990000	72.832000	13.169000	20.910000	28.500000	49.682032
279.000000	55.438245	770.676972	37.546541	40.576828	1.000000	372.642000	62.024000	372.892000	61.456000	13.169000	20.864000	23.500000	49.719786
280.000000	55.758801	573.407611	37.538115	40.535663	1.000000	373.422000	52.486000	373.658000	51.988000	13.169600	20.826000	21.000000	49.702642
281.000000	56.002864	548.619161	37.520290	40.465650	1.000000	374.060000	44.572000	374.312000	44.150000	13.170000	20.878000	20.000000	49.741854
282.000000	56.080978	350.268319	37.507003	40.418326	1.000000	374.824000	35.946000	375.084000	35.604000	13.170000	20.880000	15.500000	49.738387
283.000000	55.935447	253.428993	37.497928	40.371326	1.000000	376.552000	15.930000	376.800000	15.722000	13.170600	20.848000	12.500000	49.754072
284.000000	55.388979	-293.050247	37.486909	40.324975	1.000000	378.284000	-3.168000	378.536000	-3.230000	13.171000	20.840000	6.000000	49.760455
285.000000	54.576083	-290.391199	37.469733	40.254313	1.000000	379.108000	-10.804000	379.362000	-10.790000	13.170400	20.780000	4.500000	49.791275
286.000000	53.661414	-418.695693	37.453529	40.182355	1.000000	380.026000	-19.844000	380.288000	-19.766000	13.170600	20.800000	0.500000	49.764831
287.000000	52.458277	-557.939033	37.443482	40.128873	1.000000	380.360000	-21.690000	380.630000	-21.598000	13.170400	20.762000	0.000000	49.747688
288.000000	51.425952	-311.296076	37.434732	40.074742	1.000000	377.842000	9.958000	378.106000	9.816000	13.170000	20.728000	9.000000	49.750606
289.000000	51.249630	282.327214	37.422741	40.011211	1.000000	376.194000	28.898000	376.466000	28.614000	13.170600	20.722000	14.500000	49.734922
290.000000	51.194529	281.570150	37.410102	39.950922	1.000000	376.704000	21.684000	376.948000	21.458000	13.170400	20.770000	14.500000	49.733463
291.000000	51.002974	75.129575	37.402323	39.909433	1.000000	378.980000	-5.660000	379.206000	-5.670000	13.170600	20.810000	10.000000	49.734921
292.000000	50.143405	-538.439345	37.393249	39.872157	1.000000	378.340000	3.652000	378.594000	3.582000	13.170400	20.762000	0.000000	49.727079
293.000000	49.723345	176.143558	37.384175	39.843633	1.000000	376.304000	28.366000	376.568000	28.116000	13.170000	20.718000	14.500000	49.750606
294.000000	49.819609	399.217929	37.370887	39.798578	1.000000	376.064000	29.856000	376.336000	29.590000	13.170600	20.740000	17.000000	49.719237
295.000000	49.849104	247.112914	37.364082	39.771351	1.000000	376.642000	22.718000	376.892000	22.474000	13.170400	20.880000	12.500000	49.729997
296.000000	49.632915	134.396879	37.356304	39.740882	1.000000	376.556000	24.120000	376.810000	23.856000	13.170600	20.756000	11.500000	49.723614
297.000000	49.527900	293.315460	37.347553	39.713006	1.000000	376.308000	26.792000	376.590000	26.518000	13.170400	20.668000	14.500000	49.718689
298.000000	49.460159	218.495889	37.332321	39.666655	1.000000	376.090000	29.232000	376.344000	28.956000	13.170000	20.646000	13.500000	49.715771
299.000000	49.430340	322.819333	37.322923	39.639428	1.000000	376.940000	18.774000	377.188000	18.590000	13.170600	20.616000	15.000000	49.722155
300.000000	49.214151	-53.843959	37.314173	39.630352	1.000000	378.398000	1.836000	378.640000	1.764000	13.170400	20.602000	6.000000	49.717231
301.000000	48.536090	-187.834072	37.304774	39.629704	1.000000	378.456000	2.614000	378.704000	2.532000	13.170600	20.638000	7.500000	49.732915
302.000000	48.070005	-44.245442	37.291163	39.632621	1.000000	378.494000	2.820000	378.742000	2.776000	13.171000	20.790000	8.500000	49.735833
303.000000	47.509276	-225.428264	37.280792	39.627435	1.000000	379.696000	-10.740000	379.948000	-10.716000	13.171000	20.810000	3.000000	49.720149
304.000000	46.491537	-531.348549	37.270745	39.626786	1.000000	380.520000	-18.782000	380.756000	-18.718000	13.171000	21.082000	0.000000	49.713765
305.000000	45.418697	-544.535700	37.262967	39.628083	1.000000	380.730000	-19.604000	380.962000	-19.542000	13.166200	25.052000	0.000000	49.730909
306.000000	44.295619	-604.288625	37.252597	39.624193	1.000000	380.886000	-20.276000	381.132000	-20.202000	13.161800	28.484000	0.000000	49.738751
307.000000	43.174486	-595.295420	37.238013	39.631648	1.000000	380.998000	-20.428000	381.230000	-20.338000	13.161600	28.542000	0.000000	49.718689
308.000000	41.959682	-733.306516	37.229587	39.647855	1.000000	382.152000	-33.422000	382.378000	-33.224000	13.163200	27.390000	0.000000	49.716684
309.000000	40.205217	-1093.899418	37.221809	39.656283	1.000000	382.702000	-38.234000	382.938000	-38.012000	13.164600	26.678000	0.000000	49.728904
310.000000	38.590773	-960.774051	37.215327	39.665359	1.000000	382.486000	-33.720000	382.708000	-33.536000	13.164400	26.538000	0.000000	49.736747
311.000000	37.070972	-927.546756	37.207225	39.687076	1.000000	382.538000	-33.324000	382.778000	-33.150000	13.164600	26.530000	0.000000	49.744589
312.000000	35.460094	-1063.806773	37.198799	39.701338	1.000000	382.502000	-31.524000	382.726000	-31.360000	13.164400	26.584000	0.000000	49.766655
313.000000	33.874172	-972.923524	37.192965	39.707820	1.000000	381.758000	-21.816000	381.988000	-21.704000	13.164000	26.476000	0.000000	49.783799
314.000000	32.766977	-626.404124	37.189400	39.718841	1.000000	381.706000	-21.272000	381.986000	-21.174000	13.164000	26.506000	0.000000	49.794559
315.000000	31.527541	-862.454116	37.178381	39.731158	1.000000	381.358000	-16.498000	381.640000	-16.424000	13.164600	26.008000	0.000000	49.813162
316.000000	30.543512	-413.247886	37.174492	39.745420	1.000000	379.954000	0.622000	380.218000	0.594000	13.165600	25.464000	6.000000	49.831764
317.000000	30.389231	59.815250	37.169307	39.761303	1.000000	380.070000	-1.244000	380.324000	-1.264000	13.165400	25.366000	0.000000	49.850911
318.000000	29.635651	-430.477656	37.163149	39.773944	1.000000	380.542000	-6.790000	380.804000	-6.788000	13.165000	25.346000	0.000000	49.868053
319.000000	28.833453	-440.595011	37.156668	39.795013	1.000000	381.116000	-13.346000	381.374000	-13.308000	13.164400	25.948000	0.000000	49.860211
320.000000	27.418668	-1391.237256	37.149862	39.809599	1.000000	383.338000	-38.158000	383.558000	-37.920000	13.164000	26.396000	0.000000	49.860212
321.000000	24.003413	-2129.307188	37.144028	39.814785	1.000000	384.190000	-46.260000	384.426000	-45.940000	13.164000	26.324000	0.000000	49.853829
322.000000	21.165417	-2051.956939	37.140463	39.824833	1.000000	382.000000	-19.072000	382.260000	-18.952000	13.164600	25.792000	0.000000	49.873891
323.000000	20.554775	-359.504842	37.130741	39.835854	1.000000	380.694000	-3.592000	380.942000	-3.592000	13.164400	26.242000	0.000000	49.870972
324.000000	19.770728	-493.170667	37.123287	39.860812	1.000000	380.906000	-6.896000	381.170000	-6.872000	13.164000	26.942000	0.000000	49.889574
325.000000	18.543933	-1234.656043	37.117129	39.880909	1.000000	381.506000	-13.676000	381.762000	-13.612000	13.164000	26.758000	0.000000	49.891033
326.000000	16.711034	-1148.031592	37.113240	39.892578	1.000000	381.702000	-15.092000	381.936000	-15.018000	13.164000	26.520000	0.000000	49.875350
327.000000	15.030471	-1175.119297	37.111620	39.900357	1.000000	382.068000	-18.878000	382.280000	-18.784000	13.164000	26.440000	0.000000	49.854745
328.000000	12.484507	-1808.880894	37.103842	39.920129	1.000000	382.078000	-18.642000	382.308000	-18.544000	13.164000	26.424000	0.000000	49.858208
329.000000	10.242568	-1763.050126	37.099629	39.929529	1.000000	381.686000	-13.308000	381.918000	-13.236000	13.164000	26.422000	0.000000	49.836143
330.000000	7.732906	-1882.642492	37.097684	39.936336	1.000000	381.124000	-6.328000	381.362000	-6.310000	13.162200	28.012000	0.000000	49.836143
331.000000	5.049840	-1909.427552	37.094119	39.943467	1.000000	380.456000	1.386000	380.700000	1.328000	13.159200	30.394000	0.000000	49.840522
332.000000	1.970050	-2269.523445	37.092175	39.954163	1.000000	380.158000	4.664000	380.404000	4.562000	13.160400	29.644000	0.000000	49.809155
333.000000	0.040563	-689.983484	37.092175	39.964212	1.000000	380.184000	3.988000	380.428000	3.896000	13.162000	28.476000	0.000000	49.832680
334.000000	-0.002869	-3.603069	37.091527	39.974260	1.000000	380.214000	3.374000	380.448000	3.288000	13.161400	28.714000	0.000000	49.835600
335.000000	-0.001897	-3.170704	37.092499	39.983984	1.000000	380.204000	3.358000	380.446000	3.268000	13.161000	29.666000	0.000000	49.835600
336.000000	-0.001897	-2.954521	37.095740	39.994680	1.000000	380.188000	3.362000	380.450000	3.266000	13.161600	29.150000	0.000000	49.802773
337.000000	-0.002545	-3.019376	37.097036	39.998894	1.000000	380.204000	3.304000	380.444000	3.204000	13.162000	28.476000	0.000000	49.790009
338.000000	-0.004166	-2.911284	37.099305	39.998570	1.000000	380.214000	3.200000	380.452000	3.112000	13.162600	28.174000	0.000000	49.770863
339.000000	-0.004166	-2.868048	37.101897	40.003756	1.000000	380.216000	3.172000	380.472000	3.098000	13.162400	28.300000	0.000000	49.775785
340.000000	-0.003842	-2.781574	37.106111	40.005377	1.000000	380.220000	3.198000	380.480000	3.110000	13.162600	28.250000	0.000000	49.758641
341.000000	-0.003518	-2.803193	37.112592	40.002136	1.000000	380.196000	3.180000	380.486000	3.086000	13.163000	28.202000	0.000000	49.723810
342.000000	-0.004166	-2.781574	37.118750	39.994032	1.000000	380.210000	3.208000	380.472000	3.118000	13.162400	28.248000	0.000000	49.698823
343.000000	-0.003842	-2.824811	37.122639	39.988522	1.000000	380.230000	3.192000	380.454000	3.096000	13.162000	28.172000	0.000000	49.693901
344.000000	-0.004166	-2.738338	37.127500	39.978150	1.000000	380.230000	3.190000	380.468000	3.090000	13.162000	28.194000	0.000000	49.693901
345.000000	-0.004490	-2.738338	37.137547	39.969074	1.000000	380.212000	3.426000	380.462000	3.320000	13.165600	25.638000	0.000000	49.692441
346.000000	0.353015	608.319097	37.145649	39.968101	1.000000	380.128000	4.608000	380.372000	4.504000	13.165000	26.016000	0.000000	49.678216
347.000000	1.310466	778.204356	37.150510	39.968425	1.000000	379.390000	13.526000	379.624000	13.402000	13.163000	27.390000	10.000000	49.673294
348.000000	4.261256	2736.386964	37.157316	39.970370	1.000000	378.072000	28.562000	378.302000	28.326000	13.163000	27.496000	23.000000	49.666912
349.000000	7.925758	2828.143494	37.169307	39.973287	1.000000	377.092000	38.800000	377.346000	38.464000	13.162400	27.760000	22.500000	49.659069
350.000000	11.075233	2420.344049	37.174816	39.980418	1.000000	376.316000	46.594000	376.574000	46.198000	13.163200	27.268000	22.500000	49.684057
351.000000	14.053573	2378.640504	37.182270	39.986253	1.000000	375.356000	56.772000	375.588000	56.292000	13.164000	26.200000	27.000000	49.755179
352.000000	17.086689	2416.601978	37.189076	39.996301	1.000000	374.604000	63.472000	374.860000	62.922000	13.164000	25.628000	28.500000	49.793848
353.000000	19.915286	2193.656771	37.195558	40.010563	1.000000	374.518000	62.302000	374.762000	61.774000	13.164000	25.630000	28.500000	49.856581
354.000000	22.185423	1591.205519	37.207549	40.028391	1.000000	375.792000	46.166000	376.030000	45.768000	13.164000	25.690000	16.000000	49.905090
355.000000	23.351608	1165.410491	37.215327	40.038115	1.000000	376.076000	42.596000	376.314000	42.218000	13.164000	25.720000	20.000000	49.961438
356.000000	24.791674	1216.782751	37.219864	40.048811	1.000000	375.464000	49.234000	375.712000	48.812000	13.164000	25.734000	21.000000	50.016324
357.000000	26.259614	1251.867302	37.226022	40.060480	1.000000	374.758000	56.792000	375.000000	56.338000	13.164000	25.808000	22.500000	50.030006
358.000000	27.915545	1470.313015	37.235096	40.077011	1.000000	373.828000	66.474000	374.082000	65.920000	13.164000	25.794000	26.500000	50.049147
359.000000	29.708578	1473.168232	37.240930	40.085438	1.000000	374.436000	57.858000	374.676000	57.356000	13.164000	25.828000	21.000000	50.056987
360.000000	30.880921	1020.032423	37.244819	40.092894	1.000000	375.832000	40.116000	376.088000	39.758000	13.164000	25.772000	18.500000	50.066288
361.000000	31.641956	676.130435	37.248708	40.101969	1.000000	376.308000	34.314000	376.582000	34.010000	13.164000	25.700000	15.500000	50.059908
362.000000	32.252598	587.683682	37.250976	40.115907	1.000000	376.636000	30.940000	376.894000	30.652000	13.164600	25.826000	13.000000	50.059907
363.000000	32.642515	483.944237	37.251624	40.122390	1.000000	375.684000	42.346000	375.940000	41.958000	13.164400	25.904000	16.000000	50.025086
364.000000	33.632703	1097.534223	37.251300	40.131466	1.000000	375.170000	47.966000	375.388000	47.536000	13.164000	25.822000	21.500000	50.050068
365.000000	34.543481	848.438315	37.249356	40.138273	1.000000	376.076000	36.076000	376.302000	35.744000	13.164000	25.818000	18.500000	50.009404
366.000000	35.039061	489.654665	37.243522	40.145728	1.000000	376.998000	24.636000	377.266000	24.404000	13.164000	25.832000	13.000000	50.001564
367.000000	35.263028	275.621788	37.237041	40.163555	1.000000	377.938000	14.062000	378.194000	13.928000	13.164000	25.718000	8.500000	49.955978
368.000000	35.071797	35.848764	37.231207	40.182679	1.000000	378.514000	8.306000	378.760000	8.210000	13.164000	25.644000	7.000000	49.979501
369.000000	34.828383	-20.270766	37.224725	40.198238	1.000000	378.352000	11.172000	378.614000	11.042000	13.164000	25.706000	6.500000	49.933916
370.000000	34.749622	330.671171	37.210790	40.221900	1.000000	376.644000	31.736000	376.884000	31.448000	13.164600	25.864000	17.000000	49.919694
371.000000	35.478244	675.957392	37.197826	40.246210	1.000000	376.202000	35.858000	376.434000	35.532000	13.164400	25.940000	15.500000	49.889789
372.000000	35.869133	395.454239	37.185835	40.267279	1.000000	377.070000	24.840000	377.334000	24.610000	13.164000	25.910000	11.000000	49.872646
373.000000	35.999106	303.849467	37.175465	40.286727	1.000000	377.420000	20.760000	377.694000	20.570000	13.164000	25.974000	11.000000	49.852043
374.000000	36.096990	240.796836	37.163149	40.309416	1.000000	377.638000	18.574000	377.878000	18.396000	13.164000	25.982000	10.500000	49.812835
375.000000	36.096342	189.143430	37.141112	40.355119	1.000000	377.704000	18.066000	377.948000	17.896000	13.164600	25.914000	9.500000	49.798612
376.000000	36.096666	190.008647	37.124907	40.386561	1.000000	377.684000	18.430000	377.950000	18.248000	13.164400	25.884000	9.500000	49.798612
377.000000	36.096342	199.547655	37.116157	40.417353	1.000000	377.388000	22.066000	377.664000	21.852000	13.164000	25.820000	10.000000	49.780006
378.000000	36.196495	390.782071	37.100925	40.451388	1.000000	376.892000	27.528000	377.166000	27.274000	13.164600	25.816000	13.000000	49.741720
379.000000	36.505058	382.216429	37.080184	40.501305	1.000000	377.198000	23.530000	377.450000	23.302000	13.164400	25.942000	12.500000	49.753021
380.000000	36.641512	208.978511	37.065276	40.541173	1.000000	377.896000	15.332000	378.136000	15.186000	13.164600	26.076000	8.000000	49.723113
381.000000	36.485286	55.445908	37.053285	40.575532	1.000000	378.770000	5.008000	379.016000	4.964000	13.164400	26.078000	6.000000	49.717269
382.000000	35.988086	-318.667910	37.040970	40.608918	1.000000	379.796000	-6.066000	380.064000	-6.060000	13.164000	25.972000	0.000000	49.719654
383.000000	35.109395	-475.400441	37.020876	40.661103	1.000000	380.344000	-11.010000	380.594000	-11.000000	13.164600	25.908000	0.000000	49.701047
384.000000	34.229732	-478.059490	37.006941	40.706807	1.000000	379.714000	-2.334000	379.956000	-2.396000	13.165000	25.876000	0.000000	49.647611
385.000000	33.613580	-240.280023	36.996894	40.749917	1.000000	381.432000	-22.904000	381.670000	-22.780000	13.164400	26.340000	0.000000	49.649072
386.000000	31.973207	-1491.610942	36.987820	40.793351	1.000000	384.832000	-62.034000	385.056000	-61.598000	13.164600	26.600000	0.000000	49.641229
387.000000	28.772843	-2528.337718	36.976153	40.841647	1.000000	385.190000	-62.694000	385.434000	-62.250000	13.165000	26.566000	0.000000	49.573566
388.000000	25.809087	-2020.437470	36.958652	40.899343	1.000000	384.228000	-48.636000	384.482000	-48.298000	13.165000	26.582000	0.000000	49.579948
389.000000	22.998965	-1992.787676	36.950226	40.929812	1.000000	383.736000	-41.320000	383.980000	-41.046000	13.165000	26.572000	0.000000	49.589252
390.000000	20.297423	-1926.895129	36.940503	40.946991	1.000000	383.398000	-36.184000	383.632000	-35.958000	13.164400	26.500000	0.000000	49.597095
391.000000	17.514852	-2053.102708	36.930133	40.970005	1.000000	383.098000	-31.820000	383.340000	-31.622000	13.164000	26.550000	0.000000	49.573566
392.000000	14.584158	-2125.783406	36.917493	40.995612	1.000000	382.484000	-23.786000	382.758000	-23.638000	13.164000	26.688000	0.000000	49.614242
393.000000	11.745513	-1990.496138	36.913280	41.011818	1.000000	382.142000	-19.018000	382.396000	-18.910000	13.164000	26.728000	0.000000	49.628466
394.000000	8.110182	-2546.129581	36.905826	41.026404	1.000000	381.422000	-10.144000	381.652000	-10.092000	13.162800	27.782000	0.000000	49.664221
395.000000	5.362616	-1804.384290	36.899345	41.040666	1.000000	380.488000	0.558000	380.724000	0.518000	13.159600	30.632000	0.000000	49.645613
396.000000	2.157716	-2674.109941	36.892215	41.063356	1.000000	380.102000	4.446000	380.354000	4.354000	13.159800	30.146000	0.000000	49.692133
397.000000	0.219477	-705.397317	36.887030	41.074052	1.000000	380.116000	3.872000	380.352000	3.778000	13.161600	28.774000	0.000000	49.678445
398.000000	-0.035606	-3.732779	36.885409	41.075025	1.000000	380.142000	3.242000	380.404000	3.158000	13.162000	28.782000	0.000000	49.690671
399.000000	-0.002869	-3.170704	36.882816	41.073728	1.000000	380.130000	3.188000	380.408000	3.114000	13.162000	28.698000	0.000000	49.657840
400.000000	-0.001573	-3.040994	36.884437	41.064652	1.000000	380.130000	3.184000	380.388000	3.096000	13.162000	28.658000	0.000000	49.655844
401.000000	-0.003193	-2.911284	36.883141	41.061411	1.000000	380.034000	4.160000	380.290000	4.066000	13.162600	27.988000	0.000000	49.630854
402.000000	0.698851	879.607745	36.884761	41.062384	1.000000	379.748000	7.416000	380.014000	7.332000	13.162400	27.514000	0.000000	49.583796
403.000000	2.298060	1834.180271	36.884761	41.064004	1.000000	378.670000	20.056000	378.922000	19.874000	13.162000	27.546000	16.000000	49.524509
404.000000	5.865974	2983.947947	36.889298	41.063356	1.000000	377.372000	34.916000	377.600000	34.618000	13.162000	27.600000	23.500000	49.508288
405.000000	9.432592	2729.897818	36.895780	41.065625	1.000000	376.452000	44.384000	376.690000	44.000000	13.162000	27.656000	24.000000	49.500444
406.000000	12.639113	2465.097495	36.896752	41.064977	1.000000	375.600000	52.930000	375.844000	52.474000	13.163200	26.504000	24.500000	49.509750
407.000000	15.670932	2470.245547	36.902262	41.059142	1.000000	374.376000	65.670000	374.610000	65.124000	13.164000	25.492000	30.000000	49.509750
408.000000	18.956214	2607.512549	36.905502	41.049742	1.000000	373.404000	74.760000	373.646000	74.152000	13.164000	25.496000	33.000000	49.566114
409.000000	22.028873	2399.665320	36.916521	41.037101	1.000000	372.744000	80.270000	372.988000	79.614000	13.164000	25.486000	33.000000	49.608787
410.000000	24.870759	2269.817628	36.921707	41.037425	1.000000	374.640000	55.978000	374.892000	55.520000	13.164600	25.440000	19.500000	49.672456
411.000000	25.988974	1106.705522	36.926244	41.041315	1.000000	375.210000	48.708000	375.470000	48.302000	13.165000	25.442000	22.500000	49.696517
412.000000	27.554475	1302.417611	36.930781	41.049094	1.000000	374.492000	56.814000	374.752000	56.320000	13.164400	25.496000	22.500000	49.745033
413.000000	29.018850	1253.424693	36.937263	41.074052	1.000000	375.456000	43.944000	375.728000	43.560000	13.164000	25.546000	22.000000	49.812154
414.000000	29.955234	638.861235	36.943096	41.108087	1.000000	376.898000	26.478000	377.166000	26.220000	13.164600	25.490000	13.000000	49.818533
415.000000	30.284216	374.818830	36.944392	41.140500	1.000000	377.816000	16.198000	378.082000	16.022000	13.165000	25.504000	10.000000	49.830760
416.000000	30.366218	183.843981	36.947957	41.173238	1.000000	378.544000	8.402000	378.826000	8.262000	13.165000	25.540000	6.500000	49.832222
417.000000	30.097522	-123.173791	36.947957	41.229962	1.000000	379.482000	-1.346000	379.730000	-1.420000	13.165600	25.534000	0.000000	49.835679
418.000000	29.366631	-366.963148	36.947633	41.301920	1.000000	379.934000	-5.326000	380.148000	-5.350000	13.165400	25.572000	0.500000	49.804312
419.000000	28.683710	-342.707438	36.947633	41.358644	1.000000	380.070000	-6.014000	380.286000	-6.046000	13.165000	25.564000	1.500000	49.780253
420.000000	27.981665	-420.727811	36.947957	41.406292	1.000000	382.088000	-29.620000	382.326000	-29.450000	13.165000	25.894000	0.000000	49.752341
421.000000	25.630497	-1780.647411	36.942772	41.462691	1.000000	384.184000	-52.822000	384.422000	-52.470000	13.165000	26.346000	0.000000	49.695451
422.000000	22.218484	-2849.110147	36.934346	41.551504	1.000000	384.702000	-55.918000	384.944000	-55.550000	13.165000	26.430000	0.000000	49.676842
423.000000	18.142673	-2956.963908	36.929809	41.599801	1.000000	383.928000	-43.874000	384.148000	-43.592000	13.165000	26.396000	0.000000	49.679766
424.000000	14.543318	-2562.105506	36.923327	41.634159	1.000000	382.928000	-30.594000	383.152000	-30.412000	13.165000	26.448000	0.000000	49.679766
425.000000	11.090467	-2481.469241	36.917493	41.665600	1.000000	382.150000	-20.684000	382.390000	-20.570000	13.165000	26.348000	0.000000	49.659695
426.000000	7.744899	-2425.802118	36.905502	41.695421	1.000000	381.160000	-8.662000	381.394000	-8.626000	13.163200	27.778000	0.000000	49.689071
427.000000	5.168792	-1683.689398	36.901937	41.714221	1.000000	380.292000	1.236000	380.534000	1.182000	13.160800	30.068000	0.000000	49.716054
428.000000	2.240042	-2186.206536	36.895780	41.720055	1.000000	379.972000	4.488000	380.228000	4.380000	13.161200	29.648000	0.000000	49.743967
429.000000	0.529984	-1079.263843	36.894159	41.729131	1.000000	379.976000	4.248000	380.200000	4.158000	13.162000	28.710000	0.000000	49.750347
430.000000	-0.004166	-2.024935	36.885733	41.729131	1.000000	380.000000	3.510000	380.230000	3.428000	13.162000	28.668000	0.000000	49.759652
431.000000	-0.002221	-3.170704	36.882816	41.719731	1.000000	380.000000	3.240000	380.256000	3.138000	13.162600	28.536000	0.000000	49.756195
432.000000	-0.003518	-3.040994	36.880224	41.710007	1.000000	380.012000	3.212000	380.254000	3.120000	13.162400	28.494000	0.000000	49.731207
433.000000	-0.004166	-2.911284	36.878603	41.710007	1.000000	380.026000	3.114000	380.256000	3.022000	13.162000	28.584000	0.000000	49.721902
434.000000	-0.004166	-2.932902	36.879576	41.707738	1.000000	380.036000	3.106000	380.272000	3.012000	13.162000	28.560000	0.000000	49.687077
435.000000	-0.004166	-2.889666	36.880224	41.704821	1.000000	380.034000	3.082000	380.280000	2.980000	13.162000	28.292000	0.000000	49.646402
436.000000	-0.003842	-2.781574	36.881196	41.708386	1.000000	380.018000	3.080000	380.274000	2.976000	13.162000	28.116000	0.000000	49.627261
437.000000	-0.003842	-2.803193	36.883465	41.714221	1.000000	380.016000	3.052000	380.282000	2.970000	13.162000	28.178000	0.000000	49.589509
438.000000	-0.004814	-2.738338	36.885409	41.722324	1.000000	380.038000	3.062000	380.302000	2.980000	13.162600	28.248000	0.000000	49.558137
439.000000	-0.004166	-2.738338	36.890270	41.733345	1.000000	380.050000	3.108000	380.310000	3.012000	13.162400	28.122000	0.000000	49.533145
440.000000	-0.004166	-2.781574	36.895456	41.738531	1.000000	380.068000	3.072000	380.286000	2.984000	13.162000	28.150000	0.000000	49.511077
441.000000	-0.003842	-2.738338	36.899345	41.741448	1.000000	380.068000	3.058000	380.300000	2.972000	13.162600	28.206000	0.000000	49.501772
442.000000	-0.004814	-2.738338	36.903234	41.740800	1.000000	380.060000	3.064000	380.332000	2.974000	13.162400	28.202000	0.000000	49.460560
443.000000	-0.003193	-2.738338	36.911336	41.734641	1.000000	380.054000	3.054000	380.328000	2.970000	13.162000	28.228000	0.000000	49.469867
444.000000	-0.004166	-2.738338	36.915225	41.728158	1.000000	380.068000	3.080000	380.326000	3.006000	13.162000	28.216000	0.000000	49.460560
445.000000	-0.004166	-2.738338	36.921058	41.719731	1.000000	380.068000	3.070000	380.324000	2.994000	13.162000	28.194000	0.000000	49.451254
446.000000	-0.004166	-2.738338	36.928188	41.707738	1.000000	380.042000	3.536000	380.284000	3.456000	13.162600	27.386000	0.000000	49.447799
447.000000	0.356580	731.742228	36.938559	41.689586	1.000000	379.466000	10.406000	379.702000	10.290000	13.163000	27.138000	9.000000	49.460561
448.000000	3.134614	2611.708862	36.946985	41.669166	1.000000	378.556000	20.818000	378.808000	20.642000	13.163000	27.432000	17.500000	49.447799
449.000000	6.286034	2450.972796	36.953143	41.654904	1.000000	377.348000	34.384000	377.608000	34.106000	13.162400	27.458000	21.500000	49.454179
450.000000	9.746989	2793.729385	36.960273	41.641290	1.000000	376.024000	48.678000	376.278000	48.276000	13.162000	27.478000	27.000000	49.466412
451.000000	13.264665	2666.585392	36.969023	41.617952	1.000000	375.232000	56.442000	375.470000	55.962000	13.163200	26.244000	27.000000	49.467875
452.000000	16.352557	2420.928072	36.980690	41.592021	1.000000	374.332000	65.416000	374.574000	64.862000	13.164600	25.274000	29.000000	49.535540
453.000000	19.441422	2517.897481	36.987496	41.573870	1.000000	373.146000	77.128000	373.414000	76.496000	13.165000	25.340000	33.000000	49.591905
454.000000	22.594787	2483.137309	36.993977	41.568684	1.000000	372.094000	87.380000	372.368000	86.660000	13.164400	25.326000	36.000000	49.686017
455.000000	25.621422	2404.532175	37.004024	41.572573	1.000000	373.228000	71.470000	373.504000	70.854000	13.164000	25.346000	36.500000	49.743839
456.000000	27.576515	1378.210636	37.014719	41.597532	1.000000	373.322000	69.130000	373.590000	68.550000	13.164600	25.362000	24.500000	49.781586
457.000000	29.569206	1732.993052	37.022173	41.626056	1.000000	372.812000	73.696000	373.090000	73.088000	13.165000	25.318000	29.000000	49.835016
458.000000	31.454614	1552.357254	37.026062	41.665924	1.000000	373.450000	64.248000	373.728000	63.708000	13.165000	25.358000	27.500000	49.867317
459.000000	32.946864	1071.361412	37.031895	41.710007	1.000000	373.974000	57.644000	374.232000	57.150000	13.165000	25.306000	21.500000	49.889378
460.000000	34.101381	1033.724479	37.033840	41.780992	1.000000	374.958000	46.034000	375.184000	45.634000	13.164400	25.268000	18.500000	49.905061
461.000000	34.793054	674.400002	37.035460	41.849385	1.000000	375.652000	37.684000	375.880000	37.350000	13.164000	25.364000	16.000000	49.912902
462.000000	35.377443	608.794963	37.033840	41.908702	1.000000	375.966000	34.008000	376.206000	33.714000	13.164600	25.402000	15.000000	49.887916
463.000000	35.849362	540.529388	37.032219	41.968019	1.000000	376.478000	28.070000	376.730000	27.800000	13.165000	25.450000	14.000000	49.884462
464.000000	36.096342	269.543644	37.025089	42.069149	1.000000	377.352000	18.200000	377.600000	18.008000	13.165000	25.382000	9.000000	49.854559
465.000000	35.999106	123.646568	37.015691	42.167686	1.000000	377.786000	13.720000	378.032000	13.574000	13.164400	25.304000	8.500000	49.837413
466.000000	35.947246	191.349732	37.006293	42.250989	1.000000	377.292000	20.298000	377.536000	20.094000	13.164000	25.336000	10.500000	49.806047
467.000000	36.096342	311.225436	36.998190	42.328782	1.000000	377.452000	18.634000	377.698000	18.442000	13.164000	25.450000	10.000000	49.783984
468.000000	36.029249	121.851245	36.985875	42.411437	1.000000	378.344000	7.934000	378.600000	7.804000	13.164600	25.498000	8.000000	49.747700
469.000000	35.713232	-57.778487	36.962865	42.522615	1.000000	377.586000	17.626000	377.834000	17.438000	13.165000	25.454000	10.000000	49.695730
470.000000	35.890525	376.506002	36.947309	42.586146	1.000000	377.448000	19.206000	377.676000	19.026000	13.165000	25.466000	12.000000	49.664887
471.000000	35.882098	78.676961	36.934346	42.641897	1.000000	378.352000	8.700000	378.578000	8.560000	13.165000	25.466000	6.000000	49.636443
472.000000	35.557978	-36.830371	36.915225	42.699917	1.000000	378.134000	12.052000	378.382000	11.906000	13.165000	25.462000	8.000000	49.609461
473.000000	35.469169	162.148686	36.888650	42.778358	1.000000	378.046000	13.086000	378.312000	12.954000	13.165000	25.446000	7.500000	49.587396
474.000000	35.267566	45.257989	36.869529	42.838648	1.000000	378.068000	13.208000	378.314000	13.052000	13.165000	25.376000	7.500000	49.555087
475.000000	35.168385	204.154931	36.856890	42.890833	1.000000	377.828000	16.216000	378.076000	16.036000	13.165000	25.430000	10.000000	49.531030
476.000000	35.217651	206.901992	36.839065	42.939454	1.000000	377.686000	17.660000	377.946000	17.474000	13.165000	25.556000	10.000000	49.501120
477.000000	35.219272	214.083286	36.813138	43.016922	1.000000	377.662000	17.672000	377.928000	17.494000	13.165000	25.444000	10.000000	49.469746
478.000000	35.266594	211.206443	36.794341	43.076239	1.000000	377.688000	17.254000	377.964000	17.078000	13.165600	25.316000	10.000000	49.469746
479.000000	35.266594	209.778836	36.781054	43.125508	1.000000	377.670000	17.610000	377.926000	17.430000	13.165400	25.264000	10.000000	49.438371
480.000000	35.316508	209.584162	36.767118	43.167645	1.000000	377.986000	13.904000	378.232000	13.760000	13.165000	25.354000	9.500000	49.441298
481.000000	35.215383	80.147828	36.748646	43.207514	1.000000	377.856000	15.846000	378.112000	15.690000	13.165000	25.358000	8.000000	49.428538
482.000000	35.185564	260.869852	36.730497	43.275907	1.000000	377.464000	20.364000	377.718000	20.172000	13.165000	25.358000	10.500000	49.420694
483.000000	35.308405	275.254071	36.719478	43.323231	1.000000	376.862000	27.236000	377.112000	26.994000	13.165000	25.384000	11.500000	49.412850
484.000000	35.557330	380.269693	36.708783	43.367313	1.000000	377.790000	15.868000	378.040000	15.682000	13.165000	25.386000	8.500000	49.394236
485.000000	35.275345	-36.203440	36.696468	43.415933	1.000000	378.678000	5.750000	378.916000	5.614000	13.165000	25.336000	6.000000	49.376558
486.000000	35.025448	42.510928	36.683829	43.494374	1.000000	378.122000	12.686000	378.376000	12.528000	13.165000	25.300000	9.500000	49.342253
487.000000	35.047164	218.885236	36.673134	43.553043	1.000000	377.592000	19.010000	377.850000	18.822000	13.165000	25.318000	10.500000	49.334409
488.000000	35.121712	241.380857	36.666004	43.602312	1.000000	378.064000	13.492000	378.290000	13.352000	13.165000	25.408000	7.500000	49.310875
489.000000	34.885752	14.283253	36.658874	43.649311	1.000000	378.494000	8.596000	378.710000	8.496000	13.165000	25.406000	6.500000	49.290270
490.000000	34.640717	9.351522	36.646235	43.740393	1.000000	378.056000	14.204000	378.318000	14.044000	13.165600	25.316000	6.500000	49.264747
491.000000	34.564549	202.770585	36.639105	43.801331	1.000000	379.198000	0.866000	379.470000	0.798000	13.165400	25.544000	0.000000	49.263283
492.000000	33.693962	-479.572769	36.631975	43.856434	1.000000	380.326000	-11.718000	380.556000	-11.686000	13.164400	26.362000	0.000000	49.235357
493.000000	32.578663	-647.222527	36.627114	43.916399	1.000000	382.068000	-31.678000	382.308000	-31.494000	13.164600	26.460000	0.000000	49.230440
494.000000	30.546753	-1476.024160	36.618040	43.996785	1.000000	383.880000	-51.164000	384.122000	-50.824000	13.165000	26.216000	0.000000	49.219142
495.000000	27.823819	-1867.012470	36.610262	44.063233	1.000000	383.982000	-49.642000	384.194000	-49.310000	13.165600	26.074000	0.000000	49.225523
496.000000	25.331982	-1772.670263	36.604428	44.102777	1.000000	383.574000	-42.772000	383.786000	-42.472000	13.165400	25.966000	0.000000	49.198535
497.000000	22.642433	-1960.511570	36.598271	44.146860	1.000000	383.410000	-39.322000	383.636000	-39.058000	13.165000	25.992000	0.000000	49.204917
498.000000	19.876715	-1803.822215	36.591465	44.208121	1.000000	383.376000	-38.166000	383.618000	-37.920000	13.165000	26.104000	0.000000	49.198536
499.000000	16.831931	-2327.417243	36.580446	44.251556	1.000000	383.320000	-36.660000	383.582000	-36.434000	13.165000	26.154000	0.000000	49.229915
500.000000	13.210536	-2715.962982	36.575585	44.266142	1.000000	382.608000	-26.936000	382.866000	-26.792000	13.165000	26.000000	0.000000	49.236296
501.000000	9.942757	-2200.042244	36.570075	44.269059	1.000000	381.734000	-16.058000	381.978000	-15.982000	13.165000	26.086000	0.000000	49.270604
502.000000	6.930061	-2154.622209	36.565862	44.275542	1.000000	380.844000	-5.084000	381.060000	-5.384000	13.162000	28.436000	0.000000	49.283365
503.000000	4.509856	-1638.074816	36.558732	44.277486	1.000000	380.134000	2.712000	380.364000	2.430000	13.157000	32.866000	0.000000	49.309827
504.000000	1.104649	-2347.608732	36.556140	44.269059	1.000000	379.924000	4.448000	380.162000	4.338000	13.159200	31.014000	0.000000	49.339740
505.000000	-0.084872	29.251491	36.555491	44.253176	1.000000	379.962000	3.674000	380.198000	3.576000	13.162000	28.572000	0.000000	49.369130
506.000000	-0.010648	-3.430123	36.554195	44.235349	1.000000	379.978000	3.178000	380.218000	3.088000	13.162000	28.424000	0.000000	49.378961
507.000000	-0.001573	-3.170704	36.552575	44.212983	1.000000	379.958000	3.152000	380.204000	3.062000	13.162000	28.382000	0.000000	49.324993
508.000000	-0.002221	-3.019376	36.553547	44.197425	1.000000	379.962000	3.062000	380.188000	2.966000	13.162000	28.228000	0.000000	49.293615
509.000000	-0.003193	-2.954521	36.554843	44.176356	1.000000	379.958000	2.998000	380.210000	2.904000	13.162000	28.080000	0.000000	49.272068
510.000000	0.038942	-2.673483	36.558084	44.147508	1.000000	379.782000	4.976000	380.026000	4.868000	13.162600	27.456000	0.000000	49.254392
511.000000	1.462154	1509.593884	36.560029	44.099860	1.000000	379.208000	11.592000	379.452000	11.472000	13.163000	27.106000	10.500000	49.210251
512.000000	3.924495	1975.448731	36.565862	44.068095	1.000000	378.882000	15.072000	379.148000	14.940000	13.163600	27.024000	12.500000	49.152406
513.000000	5.743781	1211.007427	36.567483	44.052536	1.000000	378.870000	14.716000	379.122000	14.588000	13.163400	27.210000	8.500000	49.160251
514.000000	7.061005	1235.817526	36.571372	44.041516	1.000000	378.654000	16.942000	378.900000	16.804000	13.163000	27.384000	12.500000	49.147490
515.000000	8.624561	1188.403633	36.576557	44.024985	1.000000	378.438000	19.122000	378.676000	18.960000	13.163000	27.230000	11.000000	49.164645
516.000000	9.973549	1039.607954	36.588224	44.005212	1.000000	378.504000	17.936000	378.746000	17.778000	13.163000	27.160000	9.500000	49.185251
517.000000	10.949799	813.721498	36.594382	43.989978	1.000000	378.400000	18.730000	378.662000	18.574000	13.163000	27.174000	9.500000	49.200942
518.000000	12.019395	991.588421	36.599891	43.978957	1.000000	377.344000	31.182000	377.596000	30.944000	13.164200	26.252000	15.000000	49.225941
519.000000	13.986156	1821.028959	36.607993	43.970530	1.000000	376.756000	36.900000	377.008000	36.622000	13.164400	25.316000	19.500000	49.243096
520.000000	15.848550	1411.802695	36.619660	43.968909	1.000000	376.630000	37.160000	376.902000	36.866000	13.165200	24.992000	17.000000	49.253870
521.000000	17.494108	1361.079335	36.626790	43.980254	1.000000	376.500000	37.982000	376.762000	37.672000	13.164800	25.010000	17.500000	49.283784
522.000000	19.052478	1261.536103	36.635540	44.000026	1.000000	376.522000	37.098000	376.748000	36.776000	13.164600	25.094000	17.500000	49.288178
523.000000	20.430313	1078.001952	36.641698	44.031791	1.000000	376.826000	32.916000	377.060000	32.610000	13.165000	25.164000	15.000000	49.344554
524.000000	21.452912	846.340165	36.656606	44.097915	1.000000	377.094000	29.202000	377.350000	28.930000	13.165000	25.122000	13.500000	49.360242
525.000000	22.282335	739.269611	36.665680	44.159501	1.000000	377.180000	27.984000	377.428000	27.730000	13.164400	25.154000	13.000000	49.379381
526.000000	23.046287	706.261600	36.671189	44.215252	1.000000	377.194000	27.434000	377.458000	27.178000	13.164600	25.300000	13.000000	49.408772
527.000000	23.757730	684.220209	36.680588	44.271328	1.000000	377.148000	27.512000	377.440000	27.270000	13.165000	25.324000	13.000000	49.433768
528.000000	24.438383	609.638549	36.687070	44.365003	1.000000	377.420000	23.902000	377.702000	23.684000	13.165000	25.342000	12.000000	49.408772
529.000000	24.907385	463.503501	36.696792	44.479747	1.000000	377.878000	18.502000	378.136000	18.322000	13.165600	25.370000	10.500000	49.435233
530.000000	25.202334	290.827963	36.698737	44.561429	1.000000	378.440000	12.126000	378.696000	12.002000	13.165400	25.334000	6.000000	49.427389
531.000000	25.155013	77.746853	36.701653	44.638574	1.000000	378.748000	8.976000	378.996000	8.882000	13.165600	25.322000	6.000000	49.400928
532.000000	25.057452	78.590439	36.706191	44.738732	1.000000	378.720000	9.922000	378.966000	9.814000	13.164800	25.354000	6.000000	49.423940
533.000000	25.008186	135.370247	36.705218	44.852179	1.000000	378.626000	11.164000	378.882000	11.026000	13.164600	25.370000	7.000000	49.379806
534.000000	25.057452	157.887497	36.704894	44.926731	1.000000	378.560000	11.820000	378.844000	11.694000	13.165600	25.346000	7.000000	49.334725
535.000000	25.059721	163.403250	36.703274	44.990909	1.000000	377.742000	21.566000	378.018000	21.366000	13.165400	25.258000	11.500000	49.323431
536.000000	25.637952	552.966874	36.701653	45.039206	1.000000	377.816000	20.022000	378.082000	19.822000	13.165000	25.204000	10.000000	49.315586
537.000000	25.841499	271.295707	36.695496	45.126722	1.000000	378.202000	15.104000	378.478000	14.938000	13.165000	25.206000	8.500000	49.302828
538.000000	26.028192	266.472127	36.690310	45.174695	1.000000	379.012000	6.136000	379.262000	5.726000	13.165000	25.282000	6.500000	49.302828
539.000000	25.655130	-201.215789	36.685449	45.216184	1.000000	379.566000	0.000000	379.826000	-0.228000	13.165600	25.228000	2.500000	49.268519
540.000000	25.189369	-206.923015	36.680588	45.259942	1.000000	379.156000	5.292000	379.418000	5.244000	13.165400	25.220000	3.500000	49.269984
541.000000	25.009807	82.462281	36.671189	45.318611	1.000000	378.826000	9.528000	379.076000	9.442000	13.165000	25.260000	6.000000	49.268519
542.000000	24.959568	95.180958	36.663411	45.366583	1.000000	378.820000	9.772000	379.058000	9.682000	13.165000	25.296000	6.000000	49.246450
543.000000	24.870759	89.665205	36.658226	45.400617	1.000000	379.470000	1.856000	379.706000	1.796000	13.165600	25.272000	3.500000	49.241536
544.000000	24.360270	-381.123122	36.653041	45.437569	1.000000	380.064000	-4.664000	380.304000	-4.692000	13.164800	26.098000	0.000000	49.214552
545.000000	23.427452	-714.844505	36.642994	45.489755	1.000000	381.920000	-26.038000	382.172000	-25.878000	13.165200	26.226000	0.000000	49.208690
546.000000	20.789114	-2104.532625	36.633920	45.545182	1.000000	383.530000	-43.266000	383.748000	-42.974000	13.165400	25.960000	0.000000	49.192482
547.000000	17.117805	-2725.107526	36.628734	45.591857	1.000000	383.092000	-35.624000	383.312000	-35.402000	13.165000	26.124000	0.000000	49.192482
548.000000	13.124645	-3049.209261	36.625818	45.635616	1.000000	382.318000	-25.112000	382.570000	-24.978000	13.165000	26.190000	0.000000	49.192482
549.000000	9.640677	-2576.416823	36.617392	45.679374	1.000000	381.584000	-15.642000	381.838000	-15.574000	13.164400	26.518000	0.000000	49.211103
550.000000	6.411469	-2049.600545	36.606049	45.714705	1.000000	380.524000	-2.870000	380.762000	-2.914000	13.160400	29.180000	0.000000	49.233173
551.000000	3.377380	-2317.991666	36.601835	45.715353	1.000000	379.940000	3.662000	380.170000	3.562000	13.160400	29.366000	0.000000	49.273862
552.000000	0.154977	-2062.441811	36.594057	45.708546	1.000000	379.908000	3.658000	380.132000	3.582000	13.162000	28.410000	0.000000	49.311620
553.000000	-0.002221	-4.035435	36.589844	45.694608	1.000000	379.922000	3.134000	380.154000	3.062000	13.162000	28.380000	0.000000	49.317482
554.000000	-0.001573	-3.278795	36.584659	45.669326	1.000000	379.898000	3.110000	380.150000	3.024000	13.162000	28.354000	0.000000	49.327309
555.000000	-0.002869	-3.127467	36.581742	45.657657	1.000000	379.878000	3.158000	380.138000	3.062000	13.162000	28.338000	0.000000	49.322395
556.000000	-0.002869	-3.105849	36.580122	45.649878	1.000000	379.888000	3.058000	380.148000	2.970000	13.162600	28.168000	0.000000	49.323860
557.000000	-0.003842	-2.868048	36.580122	45.642747	1.000000	379.882000	3.024000	380.154000	2.920000	13.162400	28.216000	0.000000	49.292482
558.000000	-0.002869	-2.868048	36.576233	45.631078	1.000000	379.894000	3.030000	380.150000	2.916000	13.162600	28.158000	0.000000	49.270414
559.000000	-0.004166	-2.781574	36.575261	45.619085	1.000000	379.916000	2.992000	380.150000	2.876000	13.163000	28.050000	0.000000	49.236104
560.000000	-0.004166	-2.889666	36.575261	45.605795	1.000000	379.896000	3.022000	380.138000	2.908000	13.162400	28.056000	0.000000	49.212569
561.000000	-0.004166	-2.738338	36.575585	45.597368	1.000000	379.886000	3.026000	380.148000	2.916000	13.162600	28.096000	0.000000	49.166964
562.000000	-0.004166	-2.781574	36.580122	45.595423	1.000000	379.902000	3.028000	380.148000	2.930000	13.163000	28.054000	0.000000	49.160584
563.000000	-0.003518	-2.824811	36.586279	45.613899	1.000000	379.922000	3.010000	380.152000	2.914000	13.163000	28.010000	0.000000	49.116443
564.000000	-0.004166	-2.781574	36.587576	45.642423	1.000000	379.942000	3.020000	380.172000	2.920000	13.163000	27.926000	0.000000	49.133600
565.000000	-0.004166	-2.738338	36.595678	45.670947	1.000000	379.938000	3.010000	380.180000	2.916000	13.162400	27.906000	0.000000	49.095839
566.000000	-0.004166	-2.759956	36.600215	45.696229	1.000000	379.936000	3.002000	380.186000	2.906000	13.162600	27.864000	0.000000	49.085061
567.000000	-0.004166	-2.759956	36.608317	45.724105	1.000000	379.940000	2.992000	380.178000	2.904000	13.170200	21.268000	0.000000	49.087993
568.000000	0.306665	437.806579	36.613827	45.736422	1.000000	379.472000	8.710000	379.714000	8.624000	13.168400	23.044000	0.000000	49.092391
569.000000	2.592037	2487.160578	36.619012	45.741608	1.000000	378.482000	20.282000	378.720000	20.120000	13.163400	27.176000	17.000000	49.084545
570.000000	5.982982	2691.438817	36.625494	45.735125	1.000000	377.316000	33.364000	377.540000	33.088000	13.163000	27.230000	22.500000	49.084545
571.000000	9.446205	2704.806456	36.634568	45.718595	1.000000	376.174000	45.486000	376.412000	45.094000	13.163000	27.316000	26.000000	49.086527
572.000000	12.825158	2552.289938	36.640077	45.707250	1.000000	376.756000	36.394000	377.006000	36.068000	13.164200	26.298000	24.500000	49.108082
573.000000	14.765017	1089.033467	36.647207	45.694284	1.000000	377.422000	27.572000	377.666000	27.316000	13.165000	25.302000	13.500000	49.175244
574.000000	16.000887	1036.882521	36.654661	45.680995	1.000000	377.506000	26.236000	377.746000	26.012000	13.165000	25.032000	14.000000	49.230159
575.000000	17.017976	645.847858	36.664060	45.665760	1.000000	378.866000	10.088000	379.112000	10.008000	13.165600	25.106000	5.000000	49.288519
576.000000	16.805677	-142.932901	36.671189	45.653767	1.000000	379.256000	6.258000	379.500000	6.192000	13.166000	25.316000	6.000000	49.335072
577.000000	16.957689	236.924994	36.677995	45.645664	1.000000	378.484000	15.794000	378.736000	15.630000	13.165400	25.436000	6.000000	49.368429
578.000000	17.502535	574.489132	36.681236	45.650526	1.000000	378.684000	13.358000	378.914000	13.218000	13.165600	25.484000	7.500000	49.393427
579.000000	17.689553	167.015527	36.688366	45.663816	1.000000	379.020000	9.110000	379.278000	9.016000	13.165400	25.362000	5.000000	49.405669
580.000000	17.741088	146.747839	36.696468	45.684236	1.000000	379.506000	3.580000	379.778000	3.544000	13.165600	25.234000	3.500000	49.366449
581.000000	17.356681	-264.557353	36.702302	45.704981	1.000000	379.764000	1.074000	380.012000	1.026000	13.166000	25.198000	1.500000	49.333606
582.000000	17.001446	-131.172556	36.706191	45.718919	1.000000	379.624000	3.032000	379.894000	2.928000	13.166000	25.202000	3.500000	49.310073
583.000000	16.791740	-115.866812	36.711052	45.740312	1.000000	379.740000	1.544000	380.006000	2.024000	13.166000	25.186000	0.500000	49.319383
584.000000	16.356446	-163.578360	36.717858	45.781801	1.000000	379.128000	9.348000	379.378000	9.610000	13.166000	25.248000	5.500000	49.292917
585.000000	16.728536	481.824457	36.721423	45.800925	1.000000	378.664000	14.602000	378.920000	14.458000	13.166000	25.258000	8.000000	49.251714
586.000000	17.101275	298.550018	36.723691	45.819401	1.000000	378.956000	10.698000	379.204000	10.588000	13.165400	25.542000	5.000000	49.237490
587.000000	17.151189	126.025913	36.726932	45.839497	1.000000	379.404000	5.602000	379.656000	5.506000	13.165000	25.636000	3.500000	49.212489
588.000000	16.917174	-62.253471	36.729849	45.866076	1.000000	379.658000	3.020000	379.882000	2.926000	13.165000	25.350000	2.500000	49.188441
589.000000	16.616067	-106.657424	36.729525	45.882931	1.000000	379.638000	3.572000	379.868000	3.464000	13.165600	25.108000	2.000000	49.185508
590.000000	16.416733	90.422269	36.732441	45.898166	1.000000	379.416000	6.260000	379.666000	6.140000	13.165400	25.142000	4.500000	49.163439
591.000000	16.417705	97.992910	36.735358	45.904000	1.000000	379.030000	10.524000	379.310000	10.398000	13.165000	25.186000	5.000000	49.176196
592.000000	16.631300	351.220057	36.735034	45.914697	1.000000	378.442000	17.458000	378.700000	17.298000	13.165000	25.188000	8.500000	49.160506
593.000000	17.308711	713.832244	36.735682	45.916642	1.000000	377.864000	23.856000	378.124000	23.646000	13.165000	25.248000	12.500000	49.154127
594.000000	18.283989	829.122353	36.738275	45.921504	1.000000	377.846000	23.152000	378.102000	22.946000	13.165000	25.268000	12.500000	49.134990
595.000000	19.014232	640.072538	36.738275	45.941276	1.000000	377.670000	24.656000	377.922000	24.436000	13.165000	25.242000	10.500000	49.144303
596.000000	19.891301	862.022216	36.739571	45.958131	1.000000	377.422000	27.078000	377.682000	26.844000	13.165600	25.236000	14.000000	49.152148
597.000000	20.781335	700.378127	36.738599	45.986007	1.000000	377.798000	22.176000	378.028000	21.970000	13.166000	25.144000	11.000000	49.142836
598.000000	21.251633	394.026632	36.737951	46.011938	1.000000	378.490000	13.834000	378.718000	13.698000	13.166000	25.026000	7.000000	49.191374
599.000000	21.348869	170.995522	36.738923	46.042406	1.000000	378.506000	13.750000	378.770000	13.620000	13.166000	25.068000	6.000000	49.188441
600.000000	21.544962	363.635910	36.737303	46.079034	1.000000	378.324000	16.006000	378.586000	15.862000	13.165400	25.084000	8.500000	49.207064
601.000000	21.836994	359.158416	36.735358	46.120199	1.000000	378.344000	15.788000	378.588000	15.624000	13.165000	24.994000	8.500000	49.194307
602.000000	22.120275	331.168670	36.734710	46.142888	1.000000	378.414000	14.982000	378.630000	14.826000	13.165000	25.058000	8.500000	49.222754
603.000000	22.373413	310.836088	36.735034	46.162337	1.000000	378.576000	12.836000	378.794000	12.714000	13.165000	25.136000	7.000000	49.206553
604.000000	22.470973	215.337850	36.733090	46.185998	1.000000	378.840000	9.640000	379.088000	9.536000	13.165600	25.008000	5.500000	49.198708
605.000000	22.471297	102.556925	36.725312	46.234943	1.000000	378.828000	10.098000	379.088000	9.992000	13.166000	25.076000	5.500000	49.203619
606.000000	22.489448	248.929868	36.723367	46.276432	1.000000	377.618000	24.498000	377.866000	24.292000	13.165400	25.102000	10.500000	49.197241
607.000000	23.357442	939.524002	36.721423	46.311115	1.000000	376.258000	39.854000	376.510000	39.518000	13.165000	25.086000	17.000000	49.190863
608.000000	24.593960	1092.559226	36.716885	46.335749	1.000000	376.126000	40.060000	376.380000	39.710000	13.165000	25.014000	18.500000	49.190862
609.000000	25.701803	861.178630	36.709756	46.369459	1.000000	376.694000	32.354000	376.938000	32.066000	13.165000	24.962000	15.000000	49.203108
610.000000	26.392828	639.380365	36.703922	46.416459	1.000000	377.508000	22.272000	377.730000	22.066000	13.165000	24.994000	12.500000	49.183018
611.000000	26.653096	88.497164	36.696144	46.447900	1.000000	379.164000	3.316000	379.368000	3.230000	13.165600	25.196000	0.000000	49.201641
612.000000	25.881690	-429.699398	36.691931	46.478369	1.000000	382.030000	-30.228000	382.248000	-30.060000	13.165400	25.764000	0.000000	49.200174
613.000000	23.474449	-2064.452311	36.682857	46.524396	1.000000	383.814000	-49.102000	384.020000	-48.784000	13.165000	25.964000	0.000000	49.192329
614.000000	20.137956	-2524.014058	36.672162	46.590520	1.000000	383.816000	-46.172000	384.042000	-45.872000	13.165600	26.050000	0.000000	49.190352
615.000000	16.456275	-2609.752247	36.663736	46.645299	1.000000	383.074000	-35.498000	383.318000	-35.266000	13.165400	26.114000	0.000000	49.144748
616.000000	13.135665	-2356.018250	36.654661	46.689706	1.000000	382.398000	-26.230000	382.632000	-26.060000	13.165000	26.156000	0.000000	49.168284
617.000000	9.780373	-2532.120921	36.648180	46.723092	1.000000	381.650000	-16.756000	381.898000	-16.672000	13.165000	26.242000	0.000000	49.195263
618.000000	6.592976	-2007.271931	36.633920	46.762636	1.000000	380.582000	-4.002000	380.854000	-4.016000	13.160800	28.844000	0.000000	49.226134
619.000000	3.518696	-2713.974099	36.624845	46.780788	1.000000	379.936000	3.268000	380.192000	3.188000	13.159800	29.762000	0.000000	49.258980
620.000000	-0.005138	-2235.863759	36.618364	46.792781	1.000000	379.862000	3.638000	380.102000	3.532000	13.161600	28.564000	0.000000	49.279580
621.000000	0.067789	64.357634	36.612206	46.804450	1.000000	379.878000	3.118000	380.136000	3.020000	13.162000	28.168000	0.000000	49.290359
622.000000	-0.004166	-3.257177	36.603132	46.817739	1.000000	379.870000	3.134000	380.134000	3.026000	13.162600	28.140000	0.000000	49.287425
623.000000	-0.002221	-3.170704	36.597622	46.815146	1.000000	379.852000	3.120000	380.112000	3.024000	13.162400	28.184000	0.000000	49.273202
624.000000	-0.004166	-2.976139	36.591789	46.809636	1.000000	379.858000	3.028000	380.112000	2.936000	13.162600	28.120000	0.000000	49.261914
625.000000	-0.004166	-2.911284	36.586928	46.801533	1.000000	379.870000	2.986000	380.120000	2.892000	13.163000	27.914000	0.000000	49.216313
626.000000	-0.004166	-2.824811	36.583363	46.782733	1.000000	379.888000	2.954000	380.126000	2.876000	13.163000	27.968000	0.000000	49.213378
627.000000	-0.004166	-2.824811	36.580770	46.759395	1.000000	379.876000	2.930000	380.130000	2.848000	13.163000	27.898000	0.000000	49.161397
628.000000	-0.004166	-2.803193	36.580122	46.741567	1.000000	379.860000	2.936000	380.142000	2.846000	13.163000	27.790000	0.000000	49.123637
629.000000	-0.004166	-2.781574	36.579474	46.730871	1.000000	379.872000	2.952000	380.138000	2.868000	13.163000	27.802000	0.000000	49.082941
630.000000	-0.004166	-2.738338	36.580446	46.723740	1.000000	379.898000	2.948000	380.142000	2.868000	13.163000	27.918000	0.000000	49.057937
631.000000	-0.004166	-2.738338	36.581742	46.730547	1.000000	379.904000	2.970000	380.138000	2.878000	13.163000	27.930000	0.000000	49.030956
632.000000	-0.004166	-2.846429	36.580446	46.737678	1.000000	379.900000	2.954000	380.142000	2.848000	13.163000	27.788000	0.000000	49.007417
633.000000	-0.004166	-2.738338	36.583039	46.745457	1.000000	379.912000	2.954000	380.150000	2.850000	13.162400	27.960000	0.000000	48.986814
634.000000	-0.004166	-2.781574	36.589520	46.749023	1.000000	379.932000	2.952000	380.156000	2.852000	13.162600	27.988000	0.000000	48.985346
635.000000	-0.004166	-2.738338	36.593085	46.760367	1.000000	379.928000	2.940000	380.154000	2.840000	13.162400	27.888000	0.000000	48.989750
636.000000	-0.003842	-2.738338	36.594706	46.771712	1.000000	379.920000	2.958000	380.156000	2.864000	13.162600	27.802000	0.000000	48.961807
637.000000	-0.004166	-2.738338	36.598271	46.774953	1.000000	379.932000	2.976000	380.160000	2.892000	13.162400	27.948000	0.000000	48.963275
638.000000	-0.004814	-2.738338	36.604104	46.773657	1.000000	379.928000	2.974000	380.154000	2.882000	13.162000	27.996000	0.000000	48.972589
639.000000	-0.004490	-2.759956	36.610910	46.770416	1.000000	379.926000	2.970000	380.168000	2.894000	13.162600	27.904000	0.000000	48.944139
640.000000	-0.004166	-2.738338	36.618364	46.767174	1.000000	379.930000	2.988000	380.168000	2.898000	13.163000	27.832000	0.000000	48.937761
641.000000	-0.005462	-2.781574	36.622901	46.761340	1.000000	379.924000	3.030000	380.160000	2.938000	13.162400	28.046000	0.000000	48.962768
642.000000	-0.004166	-2.759956	36.631003	46.756154	1.000000	379.926000	3.020000	380.160000	2.940000	13.163200	27.898000	0.000000	48.961300
643.000000	-0.004166	-2.738338	36.638781	46.739623	1.000000	379.924000	2.982000	380.172000	2.902000	13.163400	27.726000	0.000000	48.962768
644.000000	-0.004166	-2.738338	36.649152	46.703644	1.000000	379.944000	2.958000	380.186000	2.866000	13.163000	27.708000	0.000000	48.969146
645.000000	0.075892	-2.219499	36.654985	46.679982	1.000000	379.714000	5.794000	379.968000	5.712000	13.163600	27.248000	0.000000	48.970614
646.000000	1.690334	1469.318015	36.660171	46.653402	1.000000	379.130000	12.748000	379.370000	12.636000	13.163400	27.080000	8.500000	48.951986
647.000000	4.183467	2255.346848	36.670217	46.620989	1.000000	378.124000	24.292000	378.356000	24.080000	13.163600	27.052000	20.000000	48.953454
648.000000	7.398738	2521.769336	36.680264	46.576906	1.000000	377.244000	33.718000	377.478000	33.434000	13.163400	27.124000	20.500000	48.970614
649.000000	10.331053	2256.860981	36.687718	46.543196	1.000000	377.130000	33.484000	377.396000	33.184000	13.163000	27.118000	20.000000	48.998557
650.000000	12.473487	1445.091930	36.692903	46.521803	1.000000	377.584000	27.138000	377.868000	26.886000	13.164800	25.904000	12.000000	49.012781
651.000000	13.727508	1015.295361	36.700681	46.501059	1.000000	377.538000	27.388000	377.794000	27.138000	13.166000	24.858000	14.000000	49.075549
652.000000	15.163360	1215.182099	36.712024	46.470266	1.000000	376.648000	37.338000	376.924000	37.008000	13.166000	24.790000	17.500000	49.150563
653.000000	17.063677	1625.122045	36.719154	46.449845	1.000000	375.880000	45.646000	376.114000	45.258000	13.165400	24.900000	20.500000	49.197634
654.000000	19.062526	1629.642807	36.724987	46.434287	1.000000	375.812000	44.992000	376.056000	44.610000	13.165000	25.034000	21.000000	49.188321
655.000000	20.775501	1350.826511	36.732441	46.426183	1.000000	376.092000	40.492000	376.366000	40.146000	13.165000	25.122000	19.000000	49.224105
656.000000	22.135185	1098.810418	36.740219	46.419052	1.000000	376.298000	37.674000	376.574000	37.344000	13.165000	25.034000	16.500000	49.238327
657.000000	23.256965	956.741815	36.748646	46.427804	1.000000	376.500000	34.866000	376.756000	34.560000	13.165000	24.940000	16.000000	49.241263
658.000000	24.233215	825.942682	36.753831	46.442714	1.000000	376.480000	34.632000	376.738000	34.342000	13.165000	24.974000	15.500000	49.256953
659.000000	25.096671	747.164712	36.757072	46.456652	1.000000	377.372000	23.618000	377.612000	23.400000	13.165000	25.184000	11.500000	49.263330
660.000000	25.415605	308.478374	36.760961	46.491335	1.000000	377.150000	26.628000	377.382000	26.392000	13.165000	25.138000	9.500000	49.263329
661.000000	26.059308	920.921842	36.763878	46.531203	1.000000	376.102000	38.776000	376.336000	38.448000	13.165000	25.108000	18.500000	49.259889
662.000000	27.126312	853.954071	36.763229	46.560700	1.000000	377.266000	24.046000	377.502000	23.812000	13.165000	25.052000	10.000000	49.258421
663.000000	27.209935	162.905751	36.765822	46.590520	1.000000	379.042000	3.302000	379.270000	3.230000	13.165000	24.980000	5.000000	49.245667
664.000000	26.766862	-288.532026	36.762905	46.619368	1.000000	378.880000	6.368000	379.130000	6.282000	13.165000	25.046000	1.500000	49.219196
665.000000	26.589569	239.174556	36.759664	46.675120	1.000000	378.360000	12.744000	378.612000	12.620000	13.165600	24.994000	9.000000	49.200066
666.000000	26.723106	122.802983	36.755127	46.700726	1.000000	378.512000	10.760000	378.758000	10.652000	13.166000	25.068000	7.000000	49.171622
667.000000	26.622953	3.013814	36.748970	46.735085	1.000000	379.444000	-0.042000	379.712000	-0.088000	13.166000	25.022000	3.000000	49.167217
668.000000	25.972120	-413.485688	36.744108	46.764257	1.000000	380.016000	-5.972000	380.284000	-5.988000	13.166000	25.008000	0.000000	49.129458
669.000000	25.249332	-411.842698	36.729525	46.801533	1.000000	381.558000	-23.746000	381.788000	-23.628000	13.165400	25.480000	0.000000	49.130927
670.000000	23.337995	-1633.988960	36.721747	46.828760	1.000000	382.258000	-30.484000	382.498000	-30.328000	13.165000	25.814000	0.000000	49.091699
671.000000	21.420824	-1410.066779	36.711376	46.842698	1.000000	382.728000	-34.308000	382.988000	-34.104000	13.165600	25.850000	0.000000	49.076007
672.000000	18.453828	-2142.364637	36.702626	46.853070	1.000000	382.568000	-30.654000	382.834000	-30.472000	13.165400	25.850000	0.000000	49.062750
673.000000	16.026816	-1627.589948	36.688042	46.863767	1.000000	381.980000	-22.576000	382.232000	-22.476000	13.164400	26.036000	0.000000	49.074036
674.000000	13.721350	-1627.222437	36.677347	46.871222	1.000000	381.806000	-20.074000	382.046000	-19.982000	13.164600	25.938000	0.000000	49.081881
675.000000	11.208122	-1902.596173	36.666328	46.874787	1.000000	381.578000	-16.986000	381.824000	-16.910000	13.165000	26.024000	0.000000	49.099041
676.000000	8.336742	-2107.710513	36.657254	46.872194	1.000000	381.012000	-9.852000	381.274000	-9.828000	13.163800	27.032000	0.000000	49.121109
677.000000	5.853334	-1492.518910	36.646559	46.869277	1.000000	380.288000	-1.064000	380.552000	-1.100000	13.161800	28.560000	0.000000	49.128955
678.000000	3.881063	-1390.350906	36.631651	46.865063	1.000000	379.850000	3.632000	380.128000	3.554000	13.160400	29.986000	0.000000	49.146115
679.000000	1.928239	-1360.236639	36.625494	46.863443	1.000000	379.738000	4.684000	379.992000	4.582000	13.160000	30.732000	0.000000	49.166211
680.000000	0.434369	-575.903824	36.621929	46.860201	1.000000	379.748000	4.514000	379.978000	4.398000	13.161200	29.656000	0.000000	49.155428
681.000000	-0.002545	-0.944020	36.614151	46.856312	1.000000	379.808000	3.590000	380.038000	3.482000	13.162000	28.690000	0.000000	49.158365
682.000000	-0.003518	-3.170704	36.605724	46.853394	1.000000	379.828000	3.122000	380.082000	3.034000	13.161400	28.686000	0.000000	49.156897
683.000000	-0.004166	-2.976139	36.601511	46.849505	1.000000	379.826000	3.112000	380.090000	3.026000	13.162800	28.288000	0.000000	49.160337
684.000000	-0.002545	-2.911284	36.599567	46.843022	1.000000	379.842000	3.016000	380.096000	2.926000	13.162800	28.214000	0.000000	49.107854
685.000000	-0.004166	-2.868048	36.597298	46.841077	1.000000	379.850000	2.990000	380.100000	2.888000	13.162000	28.370000	0.000000	49.103447
686.000000	-0.004166	-2.738338	36.594382	46.828760	1.000000	379.838000	3.016000	380.088000	2.906000	13.161400	28.634000	0.000000	49.079910
687.000000	-0.004166	-2.759956	36.592113	46.816443	1.000000	379.830000	3.026000	380.086000	2.922000	13.161600	28.264000	0.000000	49.029396
688.000000	-0.004166	-2.738338	36.593085	46.806071	1.000000	379.854000	2.988000	380.096000	2.900000	13.162000	27.906000	0.000000	49.026458
689.000000	-0.004166	-2.803193	36.595030	46.802181	1.000000	379.864000	2.960000	380.112000	2.886000	13.162600	27.958000	0.000000	48.979381
690.000000	-0.004166	-2.738338	36.595030	46.790836	1.000000	379.878000	2.960000	380.108000	2.872000	13.163000	28.032000	0.000000	48.949464
691.000000	-0.004166	-2.759956	36.599567	46.773657	1.000000	379.884000	2.984000	380.106000	2.878000	13.163000	27.796000	0.000000	48.945058
692.000000	-0.004166	-2.738338	36.601511	46.759071	1.000000	379.856000	3.012000	380.122000	2.902000	13.163000	27.692000	0.000000	48.935240
693.000000	0.147522	7.491307	36.604752	46.741892	1.000000	379.696000	4.928000	379.980000	4.812000	13.163600	27.248000	0.000000	48.906792
694.000000	1.443355	1280.224792	36.607021	46.718230	1.000000	379.360000	8.978000	379.628000	8.864000	13.163400	26.962000	7.500000	48.914639
695.000000	3.233146	1331.380755	36.611558	46.690678	1.000000	379.188000	10.800000	379.442000	10.690000	13.163600	27.038000	4.500000	48.886190
696.000000	4.422991	1190.112436	36.615771	46.671230	1.000000	378.712000	16.192000	378.968000	16.040000	13.163400	27.184000	10.500000	48.895506
697.000000	6.429295	1914.710427	36.620308	46.655671	1.000000	377.686000	27.882000	377.940000	27.648000	13.163000	27.128000	19.000000	48.917577
698.000000	9.280904	2229.563337	36.624521	46.638168	1.000000	377.192000	32.574000	377.448000	32.298000	13.163000	26.926000	19.500000	48.941117
699.000000	11.635313	1698.860215	36.632299	46.615479	1.000000	377.342000	29.638000	377.596000	29.376000	13.164200	26.322000	16.500000	48.959748
700.000000	13.342453	1184.791352	36.637809	46.598299	1.000000	377.540000	26.922000	377.778000	26.678000	13.165600	25.280000	12.500000	49.000449
701.000000	14.638286	1172.505271	36.642022	46.586630	1.000000	377.396000	28.160000	377.632000	27.908000	13.166000	24.820000	15.000000	49.053902
702.000000	16.031678	1078.975321	36.648828	46.570424	1.000000	377.878000	21.600000	378.130000	21.406000	13.165400	24.934000	11.000000	49.102446
703.000000	16.701959	490.152165	36.655958	46.546762	1.000000	378.974000	8.578000	379.216000	8.440000	13.165600	25.016000	5.500000	49.133827
704.000000	16.612501	-50.082378	36.663411	46.528610	1.000000	379.130000	7.464000	379.378000	7.358000	13.166000	24.948000	4.000000	49.179430
705.000000	16.769700	390.111528	36.666652	46.516941	1.000000	377.796000	23.368000	378.026000	23.158000	13.166000	25.002000	16.000000	49.173055
706.000000	18.132301	1081.960319	36.671189	46.505272	1.000000	377.058000	31.128000	377.304000	30.862000	13.165400	25.100000	14.500000	49.177462
707.000000	19.255053	947.289322	36.678643	46.485500	1.000000	377.058000	30.374000	377.292000	30.112000	13.165000	25.240000	14.000000	49.163241
708.000000	20.327567	914.778804	36.681884	46.464431	1.000000	376.858000	32.334000	377.086000	32.064000	13.165600	25.230000	14.000000	49.153926
709.000000	21.401701	994.746462	36.687070	46.446280	1.000000	376.916000	30.730000	377.174000	30.472000	13.166000	25.140000	14.500000	49.134798
710.000000	22.315071	791.269127	36.687718	46.434287	1.000000	378.036000	16.782000	378.318000	16.634000	13.166000	25.252000	10.500000	49.124014
711.000000	22.424624	100.112690	36.689986	46.419376	1.000000	379.072000	4.908000	379.326000	4.828000	13.166000	25.190000	4.500000	49.125483
712.000000	22.219132	102.578556	36.692903	46.393770	1.000000	378.408000	13.414000	378.656000	13.280000	13.165400	25.180000	10.500000	49.108323
713.000000	22.706933	483.035760	36.691283	46.389556	1.000000	377.842000	20.150000	378.090000	19.962000	13.165600	25.192000	10.500000	49.126952
714.000000	23.169776	481.413480	36.691931	46.380804	1.000000	377.984000	18.102000	378.224000	17.932000	13.165400	25.094000	10.500000	49.092631
715.000000	23.480608	287.496881	36.692255	46.378211	1.000000	379.122000	4.550000	379.362000	4.466000	13.165600	25.140000	0.000000	49.104886
716.000000	22.796390	-389.511015	36.689986	46.375618	1.000000	379.950000	-4.400000	380.196000	-4.416000	13.165400	25.806000	0.000000	49.089194
717.000000	21.994841	-487.701243	36.684801	46.381128	1.000000	380.660000	-12.518000	380.934000	-12.476000	13.165600	26.018000	0.000000	49.054374
718.000000	20.566443	-1388.707917	36.682208	46.382425	1.000000	381.980000	-26.998000	382.246000	-26.856000	13.165400	25.914000	0.000000	49.057811
719.000000	17.821794	-1919.242255	36.677671	46.388259	1.000000	382.460000	-30.524000	382.680000	-30.346000	13.165000	26.038000	0.000000	49.049965
720.000000	15.132569	-2043.655515	36.671514	46.398956	1.000000	382.350000	-27.490000	382.538000	-27.320000	13.164400	26.038000	0.000000	49.046528
721.000000	11.912435	-2341.015152	36.664060	46.405763	1.000000	381.892000	-21.336000	382.120000	-21.208000	13.164600	25.996000	0.000000	49.029366
722.000000	8.778842	-2171.981699	36.657902	46.414190	1.000000	381.138000	-11.882000	381.374000	-11.848000	13.163800	26.972000	0.000000	49.024459
723.000000	6.147635	-1624.174259	36.654661	46.422618	1.000000	380.386000	-3.180000	380.624000	-2.704000	13.162400	28.256000	0.000000	49.079381
724.000000	4.494298	-1005.869783	36.646235	46.434287	1.000000	379.916000	2.244000	380.160000	2.516000	13.162000	28.386000	0.000000	49.109294
725.000000	3.121973	-902.664116	36.640401	46.452114	1.000000	379.734000	4.208000	379.992000	4.134000	13.162000	28.322000	0.000000	49.129394
726.000000	2.156095	-843.840778	36.633272	46.461190	1.000000	379.672000	4.688000	379.936000	4.606000	13.161400	29.322000	0.000000	49.137239
727.000000	0.777288	-791.546160	36.631327	46.472535	1.000000	379.648000	4.998000	379.914000	4.896000	13.162200	28.754000	0.000000	49.142145
728.000000	0.842436	541.156672	36.625818	46.479990	1.000000	379.352000	8.262000	379.628000	8.158000	13.163600	27.484000	0.000000	49.135769
729.000000	2.665936	2070.882292	36.621281	46.492631	1.000000	378.410000	19.152000	378.678000	18.980000	13.164000	26.998000	15.500000	49.127427
730.000000	5.874401	2634.918367	36.615771	46.491659	1.000000	377.142000	33.552000	377.402000	33.272000	13.163400	26.992000	21.500000	49.116642
731.000000	9.314613	2750.727976	36.614799	46.495224	1.000000	376.126000	44.316000	376.362000	43.954000	13.163000	27.264000	24.500000	49.086730
732.000000	12.557110	2469.575003	36.613827	46.500086	1.000000	376.558000	37.356000	376.814000	37.038000	13.164200	26.290000	17.500000	49.073978
733.000000	14.364080	1273.238164	36.613178	46.506245	1.000000	376.836000	33.142000	377.116000	32.866000	13.165600	25.082000	14.500000	49.103891
734.000000	15.991487	1416.150412	36.612530	46.511755	1.000000	376.404000	37.804000	376.660000	37.494000	13.165400	25.034000	18.500000	49.146058
735.000000	17.793595	1446.130191	36.610910	46.509162	1.000000	375.926000	42.426000	376.190000	42.072000	13.164400	25.288000	19.000000	49.169594
736.000000	19.547085	1477.797145	36.612530	46.507217	1.000000	375.586000	45.382000	375.836000	44.994000	13.164600	25.238000	20.000000	49.207350
737.000000	21.307706	1433.000518	36.612530	46.507217	1.000000	375.238000	48.628000	375.474000	48.210000	13.165000	25.110000	22.000000	49.224510
738.000000	23.015171	1353.227489	36.613178	46.506245	1.000000	375.502000	44.598000	375.748000	44.228000	13.165000	25.304000	20.000000	49.224510
739.000000	24.318782	1040.711105	36.615771	46.504948	1.000000	375.892000	39.226000	376.148000	38.884000	13.165000	25.334000	17.500000	49.227450
740.000000	25.403937	911.080002	36.614799	46.503003	1.000000	376.086000	36.184000	376.340000	35.858000	13.165000	25.112000	16.500000	49.220100
741.000000	26.294295	773.510556	36.615123	46.496845	1.000000	376.542000	30.294000	376.786000	30.032000	13.165600	25.272000	14.000000	49.244609
742.000000	26.933460	603.517143	36.614799	46.489066	1.000000	376.748000	27.868000	377.006000	27.620000	13.165400	25.548000	13.500000	49.238730
743.000000	27.541186	586.018140	36.612530	46.483231	1.000000	376.942000	25.562000	377.218000	25.326000	13.165000	25.398000	12.500000	49.230390
744.000000	27.981665	461.362091	36.610910	46.473831	1.000000	377.246000	21.938000	377.502000	21.724000	13.165000	25.172000	12.000000	49.224510
745.000000	28.347921	409.384221	36.606697	46.459245	1.000000	377.470000	19.302000	377.704000	19.110000	13.165000	25.264000	10.500000	49.214699
746.000000	28.625692	337.701053	36.599891	46.443038	1.000000	377.658000	17.252000	377.888000	17.066000	13.165600	25.042000	9.500000	49.176944
747.000000	28.744644	183.411373	36.595030	46.437204	1.000000	378.204000	11.258000	378.428000	11.146000	13.166000	24.956000	6.500000	49.178414
748.000000	28.579019	-4.208381	36.588224	46.436880	1.000000	378.724000	5.416000	378.974000	5.314000	13.166000	25.004000	4.500000	49.153408
749.000000	28.247120	-67.917461	36.582715	46.438176	1.000000	378.830000	4.466000	379.088000	4.348000	13.166000	25.016000	5.500000	49.157819
750.000000	28.023801	-60.480772	36.567807	46.445631	1.000000	379.176000	0.886000	379.414000	0.806000	13.166000	25.112000	4.000000	49.111241
751.000000	27.547668	-250.570325	36.554195	46.453735	1.000000	379.732000	-4.878000	379.962000	-4.902000	13.165400	25.046000	0.000000	49.080834
752.000000	26.782096	-416.858139	36.544148	46.462162	1.000000	380.024000	-7.754000	380.260000	-7.742000	13.165000	25.798000	0.000000	49.063672
753.000000	25.868725	-665.727775	36.536046	46.470590	1.000000	381.688000	-27.022000	381.922000	-26.852000	13.165600	26.140000	0.000000	49.062202
754.000000	23.547700	-1742.599227	36.519194	46.485824	1.000000	382.364000	-33.342000	382.630000	-33.132000	13.165400	26.012000	0.000000	49.018067
755.000000	21.486620	-1460.394141	36.501693	46.505597	1.000000	382.052000	-27.802000	382.324000	-27.638000	13.165600	26.026000	0.000000	49.005315
756.000000	19.374329	-1467.160664	36.489702	46.524396	1.000000	382.290000	-29.262000	382.502000	-29.096000	13.165400	25.820000	0.000000	48.995999
757.000000	16.787202	-1898.856209	36.477063	46.545141	1.000000	382.068000	-25.740000	382.290000	-25.600000	13.165000	25.860000	0.000000	48.995999
758.000000	14.425015	-1666.286678	36.466368	46.570100	1.000000	381.602000	-19.488000	381.858000	-19.392000	13.165000	26.082000	0.000000	49.006786
759.000000	12.089405	-1680.035908	36.446599	46.608672	1.000000	381.464000	-17.222000	381.700000	-17.142000	13.165000	26.138000	0.000000	49.003845
760.000000	9.397263	-2194.162068	36.437525	46.632010	1.000000	381.154000	-13.166000	381.380000	-13.110000	13.164400	26.484000	0.000000	49.005315
761.000000	6.382946	-1885.647434	36.425534	46.650485	1.000000	380.260000	-2.518000	380.508000	-2.556000	13.161000	29.126000	0.000000	49.028361
762.000000	3.407847	-2118.411568	36.419052	46.667664	1.000000	379.692000	3.844000	379.964000	3.754000	13.161400	29.014000	0.000000	49.017574
763.000000	1.456644	-528.170662	36.405440	46.691002	1.000000	379.596000	4.594000	379.858000	4.492000	13.162400	28.038000	0.000000	49.047487
764.000000	1.183735	-89.643835	36.396690	46.705264	1.000000	379.556000	4.826000	379.800000	4.722000	13.162000	28.216000	0.000000	49.052391
765.000000	0.550080	-337.519050	36.392153	46.715312	1.000000	379.558000	4.618000	379.816000	4.524000	13.160800	28.980000	0.000000	49.048957
766.000000	0.303100	370.536012	36.387616	46.724712	1.000000	379.264000	7.980000	379.534000	7.890000	13.162400	27.936000	0.000000	49.039641
767.000000	2.463037	2187.275786	36.381134	46.733464	1.000000	378.142000	21.028000	378.394000	20.848000	13.164000	27.016000	20.000000	49.019044
768.000000	6.129160	2868.376209	36.377569	46.735409	1.000000	376.906000	34.812000	377.152000	34.530000	13.164000	27.014000	23.000000	49.012669
769.000000	9.602755	2654.169495	36.378541	46.733464	1.000000	375.992000	44.162000	376.236000	43.822000	13.163400	26.970000	24.500000	49.003352
770.000000	12.816730	2474.030880	36.377893	46.731519	1.000000	375.192000	51.948000	375.438000	51.540000	13.163600	25.872000	25.500000	49.014140
771.000000	15.796367	2303.885610	36.378866	46.726657	1.000000	375.588000	45.606000	375.844000	45.220000	13.164600	25.044000	23.000000	49.029832
772.000000	17.692146	1287.708920	36.378217	46.716609	1.000000	376.546000	33.286000	376.818000	32.990000	13.165000	25.082000	13.500000	49.069061
773.000000	18.777624	968.638546	36.379838	46.713692	1.000000	376.672000	31.444000	376.946000	31.160000	13.165000	25.066000	15.000000	49.126922
774.000000	19.949318	987.889619	36.382106	46.709478	1.000000	376.546000	32.620000	376.810000	32.326000	13.165000	25.088000	15.000000	49.158304
775.000000	21.059430	951.658667	36.384375	46.700726	1.000000	376.532000	32.486000	376.780000	32.196000	13.165000	24.936000	15.000000	49.175465
776.000000	22.085270	910.539242	36.390533	46.696513	1.000000	376.478000	32.728000	376.712000	32.444000	13.165000	24.926000	15.000000	49.203904
777.000000	23.147736	972.380608	36.392477	46.695864	1.000000	375.574000	42.874000	375.816000	42.516000	13.165000	25.082000	21.000000	49.184781
778.000000	24.708699	1368.195746	36.394422	46.695864	1.000000	374.768000	51.452000	375.006000	51.024000	13.165000	25.094000	22.000000	49.181349
779.000000	26.272903	1319.484019	36.394746	46.691326	1.000000	375.112000	45.994000	375.348000	45.614000	13.165000	25.112000	19.500000	49.167620
780.000000	27.408296	956.460620	36.398959	46.688733	1.000000	375.956000	35.168000	376.208000	34.870000	13.164400	25.254000	16.000000	49.161246
781.000000	28.139836	632.891241	36.401227	46.695216	1.000000	376.762000	25.162000	377.028000	24.946000	13.165200	25.174000	13.500000	49.170562
782.000000	28.565406	414.294323	36.401876	46.703644	1.000000	377.166000	20.716000	377.418000	20.542000	13.165400	25.088000	11.000000	49.179878
783.000000	28.835722	337.960618	36.398959	46.718878	1.000000	377.314000	19.438000	377.566000	19.256000	13.165000	25.112000	10.000000	49.162717
784.000000	29.042835	297.252194	36.398635	46.739623	1.000000	377.730000	14.428000	377.996000	14.286000	13.165600	24.970000	8.500000	49.170562
785.000000	29.067792	150.425008	36.392477	46.764257	1.000000	378.228000	8.966000	378.474000	8.850000	13.166000	24.930000	7.000000	49.159284
786.000000	28.916104	21.659220	36.389884	46.775926	1.000000	378.592000	5.232000	378.846000	5.112000	13.166000	24.898000	6.000000	49.160756
787.000000	28.638657	-114.331914	36.384051	46.783705	1.000000	378.426000	7.922000	378.708000	7.802000	13.166000	24.856000	4.000000	49.105837
788.000000	28.394919	51.076567	36.373680	46.802505	1.000000	378.308000	9.628000	378.580000	9.520000	13.166000	25.040000	6.000000	49.108779
789.000000	28.237072	31.479423	36.363310	46.813850	1.000000	378.198000	11.030000	378.464000	10.912000	13.166000	25.130000	6.000000	49.077396
790.000000	28.187806	125.117436	36.353263	46.816443	1.000000	378.186000	11.036000	378.450000	10.924000	13.166000	24.942000	7.500000	49.055330
791.000000	28.171924	139.501654	36.346133	46.822601	1.000000	378.778000	4.048000	379.044000	4.008000	13.165400	24.968000	5.000000	49.022475
792.000000	27.710052	-219.526473	36.333818	46.826815	1.000000	378.902000	3.456000	379.184000	3.366000	13.165600	25.084000	1.500000	49.012668
793.000000	27.359030	114.561799	36.315021	46.838484	1.000000	378.354000	10.206000	378.638000	10.056000	13.166000	25.088000	8.000000	48.976869
794.000000	27.455294	156.481521	36.305947	46.843994	1.000000	378.138000	12.558000	378.412000	12.426000	13.166000	25.038000	7.500000	48.961176
795.000000	27.455294	151.874245	36.292011	46.845291	1.000000	378.242000	11.334000	378.506000	11.208000	13.166000	25.046000	7.000000	48.953330
796.000000	27.406676	129.984276	36.282288	46.840105	1.000000	378.188000	12.008000	378.430000	11.872000	13.166000	25.118000	7.000000	48.931262
797.000000	27.406028	194.031902	36.263492	46.843346	1.000000	378.126000	12.550000	378.386000	12.422000	13.166000	25.180000	8.000000	48.939108
798.000000	27.455294	192.798969	36.246639	46.852098	1.000000	378.118000	12.466000	378.392000	12.334000	13.166000	25.158000	8.000000	48.909194
799.000000	27.505533	183.497895	36.235296	46.868953	1.000000	377.522000	19.982000	377.750000	19.788000	13.165400	25.100000	8.500000	48.880750
800.000000	27.851369	544.639166	36.224601	46.888725	1.000000	376.728000	29.000000	376.958000	28.728000	13.165000	25.086000	13.000000	48.887125
801.000000	28.510629	746.494169	36.205156	46.911091	1.000000	375.356000	44.072000	375.594000	43.694000	13.165000	25.060000	19.000000	48.880750
802.000000	29.852812	1189.658197	36.191221	46.934104	1.000000	374.788000	49.110000	375.030000	48.692000	13.165000	25.070000	21.000000	48.860153
803.000000	31.021265	975.041150	36.178906	46.954525	1.000000	375.002000	45.452000	375.246000	45.066000	13.165000	25.048000	18.000000	48.858681
804.000000	31.898335	831.285395	36.168535	46.973649	1.000000	375.592000	37.354000	375.838000	37.032000	13.165000	25.158000	17.500000	48.852305
805.000000	32.528749	559.520888	36.155896	47.005738	1.000000	376.270000	29.072000	376.520000	28.818000	13.165000	25.136000	10.500000	48.872903
806.000000	32.836339	515.459743	36.134830	47.048524	1.000000	376.064000	31.560000	376.320000	31.276000	13.165000	25.114000	14.000000	48.872903
807.000000	33.397716	626.293966	36.122839	47.069917	1.000000	376.122000	30.612000	376.376000	30.328000	13.165000	25.162000	14.000000	48.880750
808.000000	33.767213	428.527132	36.109552	47.096496	1.000000	376.500000	25.912000	376.744000	25.676000	13.165000	25.086000	12.000000	48.860153
809.000000	33.995718	351.133535	36.093996	47.129882	1.000000	377.032000	19.582000	377.266000	19.410000	13.165000	25.150000	10.000000	48.863096
810.000000	34.047253	188.970387	36.073902	47.178827	1.000000	377.302000	16.600000	377.544000	16.430000	13.165600	25.086000	9.000000	48.869471
811.000000	34.070589	204.825473	36.060615	47.208323	1.000000	377.338000	16.290000	377.576000	16.106000	13.165400	25.068000	9.500000	48.848874
812.000000	34.078368	159.033908	36.050568	47.229068	1.000000	377.946000	9.286000	378.188000	9.130000	13.165000	25.120000	7.500000	48.856721
813.000000	33.811293	-78.056436	36.037929	47.253054	1.000000	378.594000	1.948000	378.838000	2.270000	13.165600	25.114000	4.500000	48.834652
814.000000	33.351042	-169.242350	36.016215	47.303943	1.000000	378.608000	2.580000	378.860000	2.754000	13.165400	25.224000	4.500000	48.799832
815.000000	33.008771	-76.132409	36.003252	47.335709	1.000000	378.494000	4.720000	378.736000	4.590000	13.165600	25.090000	5.500000	48.806207
816.000000	32.710904	-47.855695	35.991585	47.360343	1.000000	378.796000	2.000000	379.050000	1.318000	13.165400	25.100000	4.000000	48.773346
817.000000	32.225372	-178.149082	35.982511	47.380115	1.000000	378.706000	3.258000	378.970000	2.772000	13.165000	25.098000	3.500000	48.732636
818.000000	31.908707	37.817131	35.970195	47.403777	1.000000	378.204000	9.360000	378.458000	9.256000	13.165000	25.156000	6.500000	48.734108
819.000000	31.798506	92.455527	35.954963	47.425818	1.000000	378.132000	10.012000	378.400000	9.906000	13.165600	25.144000	7.500000	48.716454
820.000000	31.652976	78.763482	35.944917	47.440405	1.000000	378.202000	8.946000	378.476000	8.842000	13.165400	25.218000	7.000000	48.667894
821.000000	31.508418	78.330874	35.938759	47.463418	1.000000	378.928000	0.614000	379.180000	0.562000	13.165600	25.154000	4.500000	48.658574
822.000000	30.908471	-384.906321	35.930333	47.478977	1.000000	379.690000	-7.792000	379.930000	-7.788000	13.166000	25.086000	0.000000	48.653670
823.000000	30.105301	-427.213295	35.921259	47.478977	1.000000	379.012000	1.144000	379.246000	1.104000	13.166000	25.110000	2.500000	48.608054
824.000000	29.801925	63.492418	35.915425	47.478328	1.000000	378.398000	8.302000	378.640000	8.216000	13.165400	25.122000	7.000000	48.593829
825.000000	29.736128	91.547050	35.910240	47.470225	1.000000	378.298000	9.118000	378.554000	9.034000	13.165600	25.082000	7.000000	48.588926
826.000000	29.652181	96.457152	35.905055	47.458556	1.000000	378.082000	11.752000	378.342000	11.648000	13.166000	25.224000	7.500000	48.585981
827.000000	29.652829	209.367858	35.897601	47.435867	1.000000	377.940000	13.398000	378.194000	13.266000	13.166000	25.208000	9.500000	48.578132
828.000000	29.700799	149.603052	35.892739	47.428736	1.000000	377.932000	13.366000	378.170000	13.226000	13.165400	25.234000	8.000000	48.551156
829.000000	29.685565	132.255469	35.887878	47.422253	1.000000	378.006000	12.504000	378.236000	12.394000	13.165000	25.214000	7.500000	48.563907
830.000000	29.602267	90.595313	35.886258	47.415446	1.000000	378.566000	5.864000	378.814000	5.786000	13.165000	25.138000	5.500000	48.540362
831.000000	29.249624	-140.857546	35.880424	47.406046	1.000000	379.048000	0.704000	379.302000	0.310000	13.165600	25.190000	2.500000	48.529082
832.000000	28.735893	-217.472736	35.876859	47.395350	1.000000	379.242000	-1.146000	379.504000	-1.408000	13.166000	25.188000	3.000000	48.529082
833.000000	28.186833	-326.234308	35.873294	47.390812	1.000000	379.160000	0.436000	379.394000	0.388000	13.166000	25.214000	1.000000	48.511912
834.000000	27.701301	-109.381327	35.871998	47.380115	1.000000	379.324000	-1.444000	379.552000	-1.486000	13.166000	25.118000	5.000000	48.507009
835.000000	27.272490	-387.089767	35.865840	47.369743	1.000000	379.734000	-5.990000	379.980000	-6.008000	13.165400	25.834000	0.000000	48.489837
836.000000	26.400607	-527.068130	35.863572	47.360991	1.000000	381.246000	-23.528000	381.502000	-23.418000	13.165000	26.172000	0.000000	48.504063
837.000000	24.477925	-1531.194019	35.860007	47.354184	1.000000	382.240000	-33.890000	382.476000	-33.700000	13.165600	25.932000	0.000000	48.469237
838.000000	22.322202	-1418.497910	35.858386	47.352564	1.000000	381.886000	-27.868000	382.124000	-27.714000	13.166000	25.962000	0.000000	48.486407
839.000000	20.468559	-1220.755488	35.853201	47.347053	1.000000	381.412000	-21.324000	381.656000	-21.224000	13.165400	26.030000	0.000000	48.471194
840.000000	18.912458	-974.717842	35.849312	47.328578	1.000000	379.540000	1.466000	379.786000	1.420000	13.165000	25.532000	0.000000	48.469236
841.000000	18.997377	561.900233	35.846395	47.313992	1.000000	377.744000	21.746000	378.012000	21.562000	13.165600	25.068000	12.500000	48.484934
842.000000	19.888708	773.402404	35.845099	47.301674	1.000000	377.266000	25.930000	377.546000	25.704000	13.165400	24.974000	12.500000	48.507008
843.000000	20.720400	750.625578	35.843154	47.284171	1.000000	377.350000	23.896000	377.606000	23.690000	13.165000	25.096000	13.000000	48.500632
844.000000	21.437354	580.675429	35.839590	47.264075	1.000000	377.484000	21.826000	377.706000	21.642000	13.165600	25.234000	11.000000	48.512900
845.000000	21.997434	558.980128	35.835052	47.243330	1.000000	377.244000	24.296000	377.478000	24.092000	13.165400	25.222000	11.000000	48.506524
846.000000	22.669335	670.095550	35.836997	47.222261	1.000000	377.132000	24.850000	377.400000	24.636000	13.165000	25.094000	12.500000	48.497202
847.000000	23.337995	638.363735	35.836349	47.196330	1.000000	377.078000	24.954000	377.340000	24.744000	13.165600	25.096000	12.500000	48.506524
848.000000	23.976187	608.383985	35.833756	47.160027	1.000000	376.446000	32.124000	376.708000	31.878000	13.165400	25.104000	13.500000	48.484450
849.000000	24.864601	899.096751	35.836349	47.136041	1.000000	376.004000	36.590000	376.250000	36.302000	13.165600	24.978000	16.500000	48.485924
850.000000	25.844092	876.384813	35.836349	47.115620	1.000000	376.242000	32.658000	376.502000	32.382000	13.166000	25.024000	16.500000	48.498675
851.000000	26.612257	614.829848	35.836025	47.094876	1.000000	377.138000	21.774000	377.394000	21.574000	13.166000	24.992000	8.500000	48.496719
852.000000	26.722782	219.599040	35.838941	47.071538	1.000000	377.982000	12.014000	378.216000	11.896000	13.166000	24.938000	7.500000	48.510943
853.000000	26.673192	83.587062	35.839914	47.043986	1.000000	378.110000	10.830000	378.346000	10.728000	13.166000	25.082000	6.500000	48.493290
854.000000	26.676433	201.753956	35.840886	47.030697	1.000000	377.700000	16.120000	377.928000	15.962000	13.165400	25.248000	9.000000	48.484451
855.000000	26.921144	365.842211	35.842506	47.011897	1.000000	377.000000	24.240000	377.250000	24.008000	13.165000	25.318000	10.500000	48.473172
856.000000	27.418344	588.635420	35.842830	46.993745	1.000000	376.632000	27.956000	376.884000	27.714000	13.165600	25.210000	13.000000	48.471698
857.000000	27.980045	576.024891	35.845423	46.975918	1.000000	376.264000	31.786000	376.528000	31.508000	13.165400	25.220000	13.000000	48.451097
858.000000	28.679172	719.607565	35.845099	46.967166	1.000000	376.802000	24.688000	377.064000	24.468000	13.165600	25.076000	15.500000	48.448151
859.000000	29.005885	278.520263	35.845099	46.959711	1.000000	377.562000	15.702000	377.818000	15.560000	13.166000	24.994000	7.500000	48.452571
860.000000	28.968611	139.242089	35.845423	46.951932	1.000000	377.718000	14.204000	377.984000	14.062000	13.166000	25.138000	7.500000	48.452571
861.000000	28.967963	154.924132	35.843803	46.938966	1.000000	377.800000	13.094000	378.052000	12.962000	13.166000	25.114000	9.000000	48.451097
862.000000	29.017554	128.188953	35.843479	46.929890	1.000000	378.874000	0.628000	379.120000	0.586000	13.166000	25.080000	0.000000	48.452571
863.000000	28.282773	-426.067527	35.842506	46.919194	1.000000	379.622000	-7.474000	379.878000	-7.482000	13.166000	25.070000	0.000000	48.433443
864.000000	27.516877	-420.317064	35.840562	46.910118	1.000000	379.652000	-6.762000	379.912000	-6.770000	13.166000	25.020000	0.000000	48.451097
865.000000	26.832659	-400.125590	35.837645	46.901691	1.000000	379.742000	-7.162000	379.996000	-7.162000	13.165400	25.708000	0.000000	48.444240
866.000000	25.985084	-530.008216	35.836025	46.888725	1.000000	379.756000	-6.692000	380.000000	-6.698000	13.165600	25.460000	0.000000	48.437864
867.000000	25.205575	-410.523983	35.833756	46.876408	1.000000	379.720000	-5.716000	379.966000	-5.720000	13.166000	25.082000	0.000000	48.428541
868.000000	24.524599	-371.200331	35.832460	46.866036	1.000000	378.742000	6.096000	378.986000	6.012000	13.166000	25.090000	7.000000	48.436390
869.000000	24.670129	277.590155	35.828571	46.853394	1.000000	378.012000	14.222000	378.258000	14.088000	13.165400	24.996000	8.500000	48.422165
870.000000	24.864601	304.757944	35.823709	46.834594	1.000000	377.570000	19.082000	377.820000	18.916000	13.165000	25.050000	10.500000	48.398617
871.000000	25.272020	464.714804	35.823061	46.822601	1.000000	377.616000	17.928000	377.878000	17.774000	13.165000	25.212000	11.000000	48.393715
872.000000	25.549467	283.625038	35.822737	46.812229	1.000000	377.334000	20.956000	377.586000	20.772000	13.165000	25.250000	9.500000	48.390767
873.000000	26.026572	594.800087	35.818848	46.805098	1.000000	376.608000	29.210000	376.860000	28.954000	13.165000	25.218000	14.000000	48.393715
874.000000	26.775938	713.291484	35.814959	46.783381	1.000000	376.778000	26.332000	377.032000	26.112000	13.165000	25.180000	13.500000	48.385865
875.000000	27.226465	429.630282	35.814311	46.770416	1.000000	377.172000	21.130000	377.428000	20.944000	13.165000	25.220000	10.500000	48.385865
876.000000	27.566791	428.094523	35.813663	46.756802	1.000000	376.760000	25.624000	377.014000	25.386000	13.165000	25.128000	13.500000	48.387339
877.000000	28.201743	658.133932	35.811394	46.743188	1.000000	376.236000	31.398000	376.498000	31.122000	13.165600	25.058000	14.500000	48.388813
878.000000	28.884664	679.288475	35.809126	46.726981	1.000000	377.102000	20.316000	377.360000	20.126000	13.165400	25.124000	13.000000	48.382437
879.000000	29.103770	174.737581	35.807829	46.717257	1.000000	377.776000	12.536000	378.026000	12.394000	13.165600	25.166000	8.000000	48.388813
880.000000	29.080433	144.411756	35.804264	46.709802	1.000000	378.050000	9.512000	378.306000	9.386000	13.166000	25.080000	7.500000	48.388813
881.000000	28.979307	50.319503	35.802320	46.711099	1.000000	378.200000	8.242000	378.448000	8.120000	13.166000	25.068000	6.000000	48.379489
882.000000	28.823081	41.905277	35.801348	46.700726	1.000000	378.498000	5.124000	378.750000	5.006000	13.166000	25.040000	5.500000	48.358888
883.000000	28.517112	-120.147232	35.795514	46.688733	1.000000	379.028000	-0.850000	379.282000	-0.924000	13.165400	25.252000	1.500000	48.361836
884.000000	27.955736	-191.790218	35.793245	46.676092	1.000000	378.562000	5.208000	378.806000	5.110000	13.165600	25.282000	6.000000	48.368212
885.000000	27.943419	144.195451	35.791301	46.667664	1.000000	378.056000	11.254000	378.302000	11.136000	13.165400	25.184000	7.500000	48.336813
886.000000	27.856879	61.156335	35.785143	46.650161	1.000000	378.470000	6.260000	378.714000	6.156000	13.165600	25.270000	3.500000	48.342709
887.000000	27.507153	-100.474595	35.780606	46.631685	1.000000	378.866000	1.940000	379.100000	1.864000	13.166000	25.228000	3.500000	48.336813
888.000000	27.125988	-127.497448	35.777041	46.616451	1.000000	378.846000	2.440000	379.088000	2.350000	13.165400	25.160000	3.000000	48.322108
889.000000	26.787606	-27.102143	35.771856	46.609320	1.000000	378.088000	11.562000	378.344000	11.410000	13.165000	25.202000	8.500000	48.319159
890.000000	27.008332	303.979250	35.768615	46.596355	1.000000	377.584000	17.340000	377.844000	17.166000	13.165000	25.116000	9.000000	48.316211
891.000000	27.214148	334.607905	35.756948	46.572044	1.000000	377.380000	19.090000	377.658000	18.908000	13.165000	25.076000	10.000000	48.308361
892.000000	27.518497	395.778695	35.755004	46.550003	1.000000	377.260000	20.136000	377.538000	19.934000	13.165600	25.136000	10.500000	48.275007
893.000000	27.834839	375.056765	35.749170	46.531203	1.000000	377.716000	14.928000	377.962000	14.766000	13.165400	25.262000	6.500000	48.275007
894.000000	27.798213	190.138429	35.743985	46.514024	1.000000	377.828000	13.310000	378.088000	13.174000	13.165000	25.294000	8.500000	48.268631
895.000000	27.897070	236.340973	35.737827	46.493603	1.000000	377.622000	15.658000	377.890000	15.500000	13.165000	25.168000	9.000000	48.284332
896.000000	28.039683	251.482256	35.730373	46.486797	1.000000	377.792000	13.698000	378.040000	13.552000	13.165600	25.046000	8.000000	48.249504
897.000000	28.040007	114.453647	35.724864	46.480638	1.000000	378.270000	7.816000	378.534000	7.686000	13.166000	25.034000	6.500000	48.254405
898.000000	27.831922	-57.562304	35.721623	46.474804	1.000000	378.760000	2.040000	379.016000	2.294000	13.166000	25.104000	3.000000	48.263730
899.000000	27.367457	-186.126228	35.713845	46.461838	1.000000	378.958000	0.000000	379.198000	0.666000	13.166000	25.176000	3.000000	48.270106
900.000000	26.931516	-176.570948	35.706715	46.448224	1.000000	378.994000	0.000000	379.228000	0.704000	13.166000	25.104000	3.000000	48.246555
901.000000	26.510483	-174.776630	35.703150	46.442390	1.000000	378.554000	5.934000	378.796000	6.138000	13.165400	25.172000	4.500000	48.227427
902.000000	26.429453	119.731465	35.699909	46.432990	1.000000	378.070000	11.876000	378.314000	11.746000	13.165600	25.098000	7.500000	48.246555
903.000000	26.477099	186.353108	35.696020	46.420997	1.000000	378.004000	12.486000	378.256000	12.348000	13.166000	24.996000	7.500000	48.221051
904.000000	26.476451	142.962518	35.686946	46.414514	1.000000	378.166000	10.492000	378.414000	10.374000	13.165400	25.162000	7.000000	48.213201
905.000000	26.429129	56.678841	35.686298	46.410301	1.000000	378.454000	7.086000	378.706000	6.970000	13.165600	25.120000	5.000000	48.213201
906.000000	26.195439	-18.973669	35.681112	46.407383	1.000000	378.608000	5.454000	378.856000	5.328000	13.165400	25.104000	5.000000	48.205350
907.000000	25.988650	7.123590	35.675603	46.398956	1.000000	378.518000	6.666000	378.764000	6.554000	13.165600	25.124000	5.500000	48.175422
908.000000	25.842147	12.444669	35.668473	46.387611	1.000000	378.654000	4.934000	378.922000	4.822000	13.165400	25.142000	3.500000	48.179846
909.000000	25.511221	-83.439388	35.665556	46.374646	1.000000	378.388000	8.258000	378.662000	8.138000	13.165600	25.158000	5.000000	48.178372
910.000000	25.467789	171.276717	35.660371	46.361356	1.000000	377.838000	14.994000	378.096000	14.838000	13.166000	25.102000	8.500000	48.176897
911.000000	25.686570	362.835585	35.658102	46.350660	1.000000	377.764000	15.246000	378.020000	15.090000	13.165400	25.196000	10.000000	48.167572
912.000000	25.842147	173.742583	35.649352	46.340287	1.000000	378.500000	6.374000	378.748000	6.270000	13.165600	25.280000	7.000000	48.145493
913.000000	25.559839	-174.646921	35.646111	46.331860	1.000000	379.366000	-3.312000	379.612000	-3.344000	13.166000	25.166000	0.000000	48.144019
914.000000	24.826355	-395.261477	35.641574	46.329915	1.000000	379.644000	-5.898000	379.882000	-5.892000	13.166000	25.264000	0.000000	48.132741
915.000000	24.131441	-397.444924	35.638333	46.328942	1.000000	379.712000	-6.120000	379.954000	-6.128000	13.164800	26.124000	0.000000	48.112138
916.000000	23.202188	-654.594361	35.635092	46.329915	1.000000	380.150000	-10.442000	380.388000	-10.432000	13.162800	28.012000	0.000000	48.115564
917.000000	21.922886	-370.746348	35.629583	46.332508	1.000000	379.582000	-3.026000	379.830000	-3.062000	13.163800	26.846000	0.000000	48.134216
918.000000	21.496992	-4.705602	35.626342	46.335749	1.000000	378.190000	13.300000	378.450000	13.160000	13.165000	25.192000	8.000000	48.119989
919.000000	21.925479	494.045638	35.626018	46.338667	1.000000	377.060000	25.966000	377.302000	25.750000	13.165600	24.990000	11.500000	48.134216
920.000000	22.719573	852.764398	35.622453	46.344177	1.000000	376.668000	29.524000	376.904000	29.254000	13.166000	25.012000	14.500000	48.129315
921.000000	23.599236	704.249971	35.619536	46.348066	1.000000	377.104000	22.970000	377.368000	22.752000	13.166000	25.124000	12.500000	48.121464
922.000000	24.083795	384.271318	35.619860	46.356170	1.000000	377.736000	15.036000	377.998000	14.896000	13.165400	25.060000	9.500000	48.107237
923.000000	24.227705	218.128172	35.617268	46.357791	1.000000	377.924000	13.008000	378.186000	12.876000	13.165600	25.118000	7.000000	48.133740
924.000000	24.366104	321.391727	35.615971	46.367190	1.000000	377.480000	18.460000	377.732000	18.296000	13.165400	25.150000	10.000000	48.133741
925.000000	24.776440	498.869219	35.614351	46.373349	1.000000	377.662000	15.986000	377.902000	15.848000	13.165000	25.122000	11.000000	48.146492
926.000000	24.959568	186.526152	35.614351	46.376915	1.000000	378.072000	11.194000	378.312000	11.084000	13.165600	25.154000	6.000000	48.146017
927.000000	24.910302	155.551413	35.614999	46.373997	1.000000	377.924000	13.220000	378.158000	13.098000	13.166000	25.188000	8.000000	48.132265
928.000000	25.048701	262.968001	35.615971	46.370756	1.000000	377.342000	19.982000	377.572000	19.804000	13.165400	25.266000	9.000000	48.127365
929.000000	25.438942	509.706054	35.615647	46.358439	1.000000	378.022000	11.564000	378.264000	11.408000	13.165000	25.256000	3.500000	48.140117
930.000000	25.120656	-126.481388	35.614675	46.356494	1.000000	378.436000	6.966000	378.698000	6.852000	13.165600	25.166000	3.000000	48.130315
931.000000	24.912571	58.820251	35.612082	46.350660	1.000000	378.304000	8.800000	378.562000	8.696000	13.166000	25.208000	6.000000	48.114613
932.000000	24.823438	70.176213	35.614999	46.348391	1.000000	378.134000	10.866000	378.372000	10.754000	13.165400	25.224000	6.000000	48.113138
933.000000	24.876593	201.624174	35.616620	46.344501	1.000000	378.142000	10.554000	378.408000	10.446000	13.165600	25.188000	7.000000	48.123939
934.000000	24.863304	89.470532	35.618564	46.332184	1.000000	378.446000	7.020000	378.736000	6.890000	13.166000	25.288000	5.000000	48.084684
935.000000	24.667212	-22.475831	35.616620	46.323756	1.000000	378.620000	5.372000	378.874000	5.222000	13.166000	25.198000	4.500000	48.113138
936.000000	24.424122	-43.748221	35.619860	46.314356	1.000000	378.646000	5.456000	378.882000	5.312000	13.166000	25.132000	3.500000	48.095486
937.000000	24.195617	135.500030	35.621805	46.300094	1.000000	378.098000	12.106000	378.338000	11.942000	13.165400	25.256000	8.000000	48.087634
938.000000	24.439355	383.817080	35.623749	46.284860	1.000000	377.502000	18.768000	377.742000	18.576000	13.165600	25.218000	10.500000	48.074883
939.000000	24.800749	395.151413	35.624398	46.268653	1.000000	377.806000	14.624000	378.046000	14.466000	13.166000	25.174000	8.500000	48.079783
940.000000	24.862332	128.708083	35.627314	46.256336	1.000000	378.452000	6.898000	378.680000	6.768000	13.166000	25.010000	6.000000	48.064080
941.000000	24.629614	-139.776632	35.630555	46.241426	1.000000	378.128000	10.942000	378.378000	10.806000	13.166000	24.950000	5.500000	48.043477
942.000000	24.667860	265.952997	35.633472	46.214847	1.000000	378.750000	3.624000	378.996000	3.544000	13.166000	24.894000	3.000000	48.065556
943.000000	24.119449	-388.257155	35.634768	46.195074	1.000000	378.138000	11.344000	378.386000	11.226000	13.166000	24.842000	3.000000	48.050856
944.000000	24.318134	490.671295	35.638981	46.173357	1.000000	377.002000	24.528000	377.268000	24.316000	13.165400	24.904000	11.500000	48.054280
945.000000	24.913867	638.558409	35.639630	46.150668	1.000000	376.546000	29.100000	376.798000	28.848000	13.165600	24.898000	14.500000	48.046428
946.000000	25.534557	411.763566	35.644167	46.115337	1.000000	378.242000	8.622000	378.476000	8.518000	13.166000	24.756000	0.000000	48.049380
947.000000	24.801397	-402.957585	35.645139	46.074820	1.000000	379.628000	-7.310000	379.876000	-7.316000	13.164800	25.622000	0.000000	48.041528
948.000000	23.776205	-876.376288	35.646759	46.044999	1.000000	381.322000	-26.450000	381.558000	-26.310000	13.165200	25.968000	0.000000	48.046429
949.000000	21.676555	-1843.621482	35.648056	46.013882	1.000000	381.520000	-26.874000	381.746000	-26.724000	13.166000	25.840000	0.000000	48.049380
950.000000	19.821939	-1042.512767	35.647408	45.973365	1.000000	381.702000	-27.934000	381.932000	-27.790000	13.165400	25.772000	0.000000	48.060183
951.000000	17.531058	-2032.176202	35.651945	45.935766	1.000000	382.336000	-34.456000	382.548000	-34.264000	13.165600	25.682000	0.000000	48.063607
952.000000	14.306387	-2445.193733	35.653241	45.909511	1.000000	381.934000	-28.106000	382.152000	-27.942000	13.165400	26.030000	0.000000	48.066559
953.000000	10.453247	-2946.003423	35.655834	45.886497	1.000000	381.100000	-17.252000	381.336000	-17.178000	13.165000	26.000000	0.000000	48.090112
954.000000	6.642242	-2660.252608	35.657778	45.858621	1.000000	380.034000	-4.462000	380.268000	-4.474000	13.162600	28.010000	0.000000	48.116618
955.000000	3.989967	-2061.447369	35.661343	45.817780	1.000000	379.340000	3.228000	379.594000	3.164000	13.160400	29.596000	0.000000	48.129368
956.000000	1.004820	-2090.653681	35.662315	45.795415	1.000000	379.236000	3.978000	379.494000	3.880000	13.161200	28.870000	0.000000	48.165199
957.000000	-0.084224	-0.468418	35.664908	45.779856	1.000000	379.278000	3.284000	379.528000	3.186000	13.162600	28.078000	0.000000	48.209352
958.000000	-0.020048	-3.386886	35.667825	45.759436	1.000000	379.242000	3.620000	379.504000	3.530000	13.163600	27.064000	0.000000	48.215727
959.000000	0.387371	697.631067	35.673010	45.735450	1.000000	378.910000	7.502000	379.174000	7.412000	13.163400	26.818000	0.000000	48.228004
960.000000	2.264027	2047.629553	35.678196	45.717298	1.000000	377.978000	18.196000	378.244000	18.034000	13.163600	26.874000	16.500000	48.212304
961.000000	5.497450	2511.689535	35.680464	45.702064	1.000000	377.040000	28.620000	377.292000	28.362000	13.163400	26.884000	18.500000	48.191703
962.000000	8.476438	2380.781920	35.684353	45.685209	1.000000	375.792000	42.690000	376.032000	42.322000	13.163000	26.930000	21.000000	48.183853
963.000000	11.829461	2859.356293	35.696020	45.657657	1.000000	374.446000	57.020000	374.686000	56.546000	13.164200	25.944000	29.500000	48.173050
964.000000	15.344867	2657.738525	35.704771	45.631078	1.000000	375.104000	46.526000	375.362000	46.142000	13.165000	25.012000	22.000000	48.207405
965.000000	17.248101	1219.183728	35.713197	45.606768	1.000000	376.148000	33.058000	376.424000	32.788000	13.165600	24.814000	10.000000	48.218207
966.000000	18.286906	1062.363157	35.722271	45.578244	1.000000	375.896000	36.352000	376.134000	36.042000	13.165400	24.864000	15.500000	48.295234
967.000000	19.725999	1300.146416	35.732318	45.541940	1.000000	375.882000	35.814000	376.116000	35.488000	13.165600	24.942000	17.500000	48.337436
968.000000	21.008543	948.954865	35.746253	45.482948	1.000000	376.112000	32.404000	376.362000	32.106000	13.166000	24.970000	15.000000	48.350184
969.000000	22.032763	889.536107	35.755328	45.436596	1.000000	376.140000	31.526000	376.414000	31.242000	13.166000	24.952000	15.000000	48.379636
970.000000	22.971091	863.839171	35.767643	45.390569	1.000000	375.684000	36.472000	375.950000	36.156000	13.165400	24.910000	15.000000	48.381112
971.000000	24.133062	1164.588535	35.776393	45.334169	1.000000	374.294000	52.460000	374.544000	52.030000	13.165000	24.794000	22.000000	48.401709
972.000000	25.940356	1595.683019	35.792921	45.252487	1.000000	374.590000	47.052000	374.852000	46.670000	13.165600	24.946000	25.500000	48.388962
973.000000	27.211880	773.164470	35.802320	45.193494	1.000000	375.852000	31.168000	376.128000	30.888000	13.165400	25.156000	14.500000	48.406137
974.000000	27.806640	559.823714	35.809774	45.139364	1.000000	376.252000	26.572000	376.532000	26.330000	13.165000	25.110000	13.000000	48.400233
975.000000	28.321667	549.852095	35.817876	45.092364	1.000000	376.458000	24.286000	376.702000	24.080000	13.165000	25.074000	12.500000	48.396811
976.000000	28.675607	378.777195	35.829543	45.007765	1.000000	377.052000	17.398000	377.302000	17.244000	13.165000	25.144000	10.500000	48.382589
977.000000	28.821137	216.484261	35.834728	44.950717	1.000000	377.624000	10.838000	377.882000	10.720000	13.165000	25.090000	8.500000	48.390438
978.000000	28.711584	-38.127468	35.839265	44.904365	1.000000	378.688000	-1.030000	378.932000	-1.086000	13.165000	25.096000	0.000000	48.423312
979.000000	27.942447	-439.362769	35.839914	44.864496	1.000000	378.578000	1.646000	378.818000	1.602000	13.165600	25.248000	0.000000	48.385540
980.000000	27.553178	13.115212	35.844775	44.815552	1.000000	378.320000	5.136000	378.566000	5.046000	13.166000	25.212000	5.500000	48.384064
981.000000	27.309764	-143.365267	35.845423	44.764987	1.000000	378.646000	1.336000	378.884000	1.292000	13.166000	25.032000	3.500000	48.361991
982.000000	26.857292	-191.574035	35.845423	44.730628	1.000000	378.830000	0.000000	379.072000	-0.384000	13.166000	24.972000	2.500000	48.366889
983.000000	26.367222	-211.808747	35.845099	44.700808	1.000000	378.864000	0.000000	379.114000	-0.256000	13.165400	25.040000	2.500000	48.308518
984.000000	25.904379	-201.388735	35.842506	44.669367	1.000000	378.866000	0.000000	379.110000	0.000000	13.165600	25.002000	2.500000	48.307042
985.000000	25.464872	-185.910045	35.839914	44.633388	1.000000	378.936000	0.000000	379.176000	-0.468000	13.166000	24.920000	3.000000	48.287921
986.000000	25.006890	-296.357844	35.836025	44.609726	1.000000	379.340000	-4.410000	379.598000	-4.734000	13.166000	25.608000	0.000000	48.269268
987.000000	24.166770	-576.682082	35.832784	44.588333	1.000000	380.216000	-14.160000	380.492000	-14.120000	13.165400	25.810000	0.000000	48.259472
988.000000	22.266129	-1007.426299	35.830515	44.568560	1.000000	379.926000	-9.694000	380.176000	-9.662000	13.166200	25.198000	0.000000	48.237398
989.000000	21.412721	-379.977353	35.824358	44.534526	1.000000	378.952000	2.388000	379.176000	2.334000	13.166400	24.922000	4.500000	48.235922
990.000000	21.301223	58.409274	35.819820	44.517347	1.000000	378.086000	12.440000	378.306000	12.320000	13.166000	24.996000	6.500000	48.235921
991.000000	21.559223	434.583646	35.816255	44.506651	1.000000	377.070000	23.586000	377.314000	23.374000	13.165400	24.944000	12.500000	48.220221
992.000000	22.329009	754.692096	35.812691	44.495306	1.000000	377.230000	20.400000	377.496000	20.212000	13.165600	24.964000	13.000000	48.202575
993.000000	22.765274	263.638544	35.807829	44.478451	1.000000	377.972000	11.272000	378.230000	11.162000	13.166000	25.092000	6.500000	48.215323
994.000000	22.764626	72.793491	35.801672	44.466458	1.000000	378.212000	8.750000	378.462000	8.660000	13.166000	25.050000	5.000000	48.199622
995.000000	22.716656	167.361614	35.801023	44.460299	1.000000	378.040000	10.990000	378.266000	10.900000	13.166000	24.996000	7.000000	48.208949
996.000000	22.814216	206.339602	35.796810	44.458678	1.000000	378.268000	8.282000	378.502000	8.150000	13.165400	25.036000	5.000000	48.199622
997.000000	22.653453	-21.784046	35.796162	44.447658	1.000000	378.266000	8.226000	378.528000	8.108000	13.165000	25.150000	6.000000	48.188350
998.000000	22.665769	193.534402	35.793245	44.439230	1.000000	377.930000	12.270000	378.182000	12.162000	13.165000	25.132000	6.500000	48.179023
999.000000	22.804169	283.322213	35.789356	44.432099	1.000000	377.330000	19.276000	377.576000	19.108000	13.165000	25.074000	9.000000	48.186874
1000.000000	23.289377	594.194436	35.787736	44.431451	1.000000	376.746000	25.570000	376.996000	25.346000	13.165600	25.046000	13.000000	48.166275
1001.000000	24.036150	714.870504	35.785792	44.428858	1.000000	376.744000	24.628000	377.006000	24.430000	13.165400	25.204000	12.500000	48.153994
1002.000000	24.569651	524.220059	35.783523	44.420106	1.000000	377.256000	18.472000	377.484000	18.302000	13.165600	25.098000	9.000000	48.163321
1003.000000	24.810473	311.225436	35.781578	44.413624	1.000000	377.418000	16.742000	377.642000	16.584000	13.166000	25.166000	9.000000	48.169229
1004.000000	25.058425	341.334961	35.781903	44.405844	1.000000	377.218000	18.724000	377.464000	18.550000	13.166000	25.160000	9.500000	48.149096
1005.000000	25.367635	410.444111	35.779958	44.394500	1.000000	377.118000	19.760000	377.356000	19.576000	13.166000	25.174000	10.500000	48.172183
1006.000000	25.707638	405.339335	35.777365	44.380886	1.000000	378.064000	7.968000	378.312000	8.160000	13.166000	25.268000	6.500000	48.164798
1007.000000	25.413661	-155.471505	35.777365	44.365327	1.000000	378.778000	0.000000	379.044000	0.176000	13.166000	25.136000	3.000000	48.163321
1008.000000	24.956975	-272.945246	35.775745	44.354631	1.000000	379.130000	-3.228000	379.388000	-3.234000	13.166000	25.106000	0.000000	48.167752
1009.000000	24.265303	-408.059499	35.772180	44.345879	1.000000	378.874000	0.728000	379.106000	0.658000	13.166000	25.108000	0.000000	48.165809
1010.000000	23.889971	80.904892	35.770560	44.331293	1.000000	378.516000	5.286000	378.742000	5.158000	13.166000	25.098000	5.500000	48.142722
1011.000000	23.743145	-45.002082	35.766022	44.319300	1.000000	378.798000	2.244000	379.016000	1.852000	13.166000	25.092000	3.000000	48.148630
1012.000000	23.264095	-253.467175	35.763754	44.306335	1.000000	379.022000	0.000000	379.232000	-0.224000	13.166000	24.990000	1.500000	48.151584
1013.000000	22.728973	-267.843332	35.761485	44.296610	1.000000	379.270000	-2.856000	379.492000	-2.862000	13.166000	25.014000	0.000000	48.137359
1014.000000	22.069064	-375.632079	35.758568	44.293369	1.000000	379.424000	-4.406000	379.654000	-4.428000	13.166000	25.010000	0.000000	48.150107
1015.000000	21.398784	-375.264568	35.755328	44.286886	1.000000	379.498000	-4.950000	379.734000	-4.974000	13.164800	26.104000	0.000000	48.129508
1016.000000	20.431609	-863.556649	35.755976	44.282997	1.000000	381.242000	-24.988000	381.446000	-24.858000	13.164600	26.254000	0.000000	48.128031
1017.000000	17.433174	-2256.012010	35.749818	44.277162	1.000000	382.100000	-33.626000	382.310000	-33.444000	13.165600	25.790000	0.000000	48.107432
1018.000000	14.372183	-2258.627824	35.750466	44.274893	1.000000	381.770000	-28.298000	381.988000	-28.148000	13.165400	25.738000	0.000000	48.090252
1019.000000	10.856776	-2573.411879	35.745929	44.271004	1.000000	381.280000	-21.452000	381.508000	-21.350000	13.165000	25.838000	0.000000	48.099581
1020.000000	7.280759	-2513.529182	35.743012	44.270031	1.000000	380.162000	-7.184000	380.408000	-7.690000	13.163200	27.470000	0.000000	48.116760
1021.000000	4.704004	-1715.597988	35.742040	44.275542	1.000000	379.290000	2.604000	379.540000	2.182000	13.159000	30.802000	0.000000	48.141791
1022.000000	1.425528	-2582.988787	35.738475	44.277811	1.000000	379.102000	4.250000	379.328000	4.140000	13.160600	29.654000	0.000000	48.178091
1023.000000	-0.066073	20.750743	35.739448	44.285266	1.000000	379.134000	3.488000	379.368000	3.390000	13.162400	28.062000	0.000000	48.216880
1024.000000	-0.001573	-3.603069	35.738151	44.294342	1.000000	379.132000	3.050000	379.370000	2.948000	13.162600	28.028000	0.000000	48.261027
1025.000000	-0.001573	-3.170704	35.738151	44.302445	1.000000	379.138000	3.034000	379.374000	2.942000	13.162400	27.956000	0.000000	48.237477
1026.000000	-0.003193	-3.062612	35.738799	44.307631	1.000000	379.144000	2.920000	379.384000	2.846000	13.162000	27.830000	0.000000	48.245327
1027.000000	-0.003518	-2.954521	35.740420	44.305362	1.000000	379.146000	2.896000	379.398000	2.808000	13.162600	27.664000	0.000000	48.240431
1028.000000	-0.003518	-2.954521	35.747226	44.301473	1.000000	379.144000	2.908000	379.410000	2.808000	13.163000	27.776000	0.000000	48.202656
1029.000000	-0.004166	-2.824811	35.750142	44.295962	1.000000	379.152000	2.900000	379.410000	2.800000	13.163000	27.760000	0.000000	48.189909
1030.000000	-0.003842	-2.954521	35.754355	44.290452	1.000000	379.166000	2.882000	379.410000	2.806000	13.163000	27.722000	0.000000	48.168298
1031.000000	-0.003842	-2.824811	35.759865	44.282024	1.000000	379.158000	2.906000	379.416000	2.798000	13.163000	27.666000	0.000000	48.144745
1032.000000	-0.004166	-2.781574	35.767967	44.271004	1.000000	379.168000	2.888000	379.426000	2.790000	13.162400	27.694000	0.000000	48.122670
1033.000000	-0.004166	-2.738338	35.773800	44.258687	1.000000	379.168000	2.908000	379.424000	2.826000	13.162000	27.762000	0.000000	48.111400
1034.000000	-0.004166	-2.781574	35.778662	44.242804	1.000000	379.166000	2.946000	379.414000	2.844000	13.162600	27.830000	0.000000	48.108445
1035.000000	-0.004166	-2.759956	35.784819	44.230811	1.000000	379.170000	2.914000	379.434000	2.804000	13.163000	27.852000	0.000000	48.072144
1036.000000	-0.003842	-2.803193	35.801348	44.198397	1.000000	379.170000	2.908000	379.432000	2.810000	13.163000	27.858000	0.000000	48.079995
1037.000000	-0.004166	-2.759956	35.808802	44.171494	1.000000	379.182000	2.944000	379.432000	2.854000	13.163000	27.894000	0.000000	48.076577
1038.000000	-0.005138	-2.738338	35.818848	44.145887	1.000000	379.166000	2.924000	379.440000	2.828000	13.163000	27.910000	0.000000	48.040276
1039.000000	-0.005462	-2.803193	35.826950	44.120281	1.000000	379.180000	2.912000	379.440000	2.818000	13.162400	27.964000	0.000000	48.051545
1040.000000	-0.004166	-2.738338	35.843803	44.078143	1.000000	379.194000	2.950000	379.434000	2.842000	13.162600	27.808000	0.000000	48.042216
1041.000000	-0.004166	-2.738338	35.857738	44.037302	1.000000	379.190000	2.928000	379.442000	2.826000	13.163600	27.770000	0.000000	48.040276
1042.000000	-0.004166	-2.738338	35.867137	44.009750	1.000000	379.184000	2.900000	379.444000	2.810000	13.163400	27.764000	0.000000	48.043231
1043.000000	-0.004490	-2.803193	35.879128	43.977985	1.000000	379.192000	2.912000	379.452000	2.840000	13.162400	27.906000	0.000000	48.041753
1044.000000	-0.005138	-2.738338	35.898249	43.922882	1.000000	379.206000	2.956000	379.448000	2.866000	13.162600	27.976000	0.000000	48.053023
1045.000000	-0.004166	-2.738338	35.913805	43.876530	1.000000	379.198000	2.944000	379.440000	2.840000	13.163000	27.760000	0.000000	48.043231
1046.000000	-0.004814	-2.759956	35.924175	43.840551	1.000000	379.190000	2.914000	379.452000	2.826000	13.163000	27.694000	0.000000	48.052561
1047.000000	-0.004166	-2.738338	35.932926	43.802952	1.000000	379.208000	2.910000	379.472000	2.818000	13.162400	27.802000	0.000000	48.049604
1048.000000	-0.004166	-2.846429	35.948806	43.756600	1.000000	379.196000	2.898000	379.468000	2.804000	13.162000	27.784000	0.000000	48.085444
1049.000000	-0.004166	-2.738338	35.970520	43.679780	1.000000	379.204000	2.908000	379.466000	2.824000	13.162600	27.824000	0.000000	48.065307
1050.000000	-0.004490	-2.738338	35.982511	43.634725	1.000000	379.208000	2.920000	379.470000	2.822000	13.163000	27.874000	0.000000	48.068263
1051.000000	-0.003842	-2.738338	35.994502	43.591291	1.000000	379.236000	2.938000	379.476000	2.834000	13.162400	27.936000	0.000000	48.079071
1052.000000	-0.004166	-2.759956	36.006493	43.538457	1.000000	379.110000	4.522000	379.360000	4.416000	13.163200	27.236000	0.000000	48.085444
1053.000000	1.169473	1297.918483	36.027558	43.466499	1.000000	378.464000	11.978000	378.728000	11.844000	13.164000	26.902000	10.500000	48.061890
1054.000000	3.916716	2191.926334	36.040846	43.414961	1.000000	377.476000	23.330000	377.730000	23.126000	13.163400	26.962000	17.000000	48.049143
1055.000000	6.954046	2601.109927	36.053809	43.374444	1.000000	376.160000	38.508000	376.392000	38.172000	13.163600	26.894000	22.000000	48.089878
1056.000000	10.500568	2930.974859	36.066448	43.331334	1.000000	374.804000	52.944000	375.036000	52.490000	13.164000	26.480000	28.500000	48.082027
1057.000000	14.109322	2713.718215	36.090431	43.258403	1.000000	374.108000	58.688000	374.354000	58.186000	13.165200	25.338000	28.500000	48.129134
1058.000000	17.034830	2014.470069	36.103070	43.205569	1.000000	375.246000	43.648000	375.496000	43.252000	13.166000	24.894000	15.500000	48.169867
1059.000000	18.378632	1136.750180	36.115709	43.157921	1.000000	375.790000	37.066000	376.022000	36.734000	13.166000	25.080000	15.500000	48.243938
1060.000000	19.819022	1358.224118	36.127700	43.106060	1.000000	375.008000	45.962000	375.228000	45.586000	13.165400	25.110000	21.500000	48.322440
1061.000000	21.650301	1481.041710	36.144553	43.033777	1.000000	375.322000	40.874000	375.560000	40.534000	13.165000	25.018000	19.000000	48.381822
1062.000000	22.808382	890.358062	36.161081	42.940750	1.000000	375.982000	32.208000	376.232000	31.920000	13.165600	24.958000	14.500000	48.394566
1063.000000	23.689665	793.172603	36.172748	42.879489	1.000000	375.900000	33.070000	376.150000	32.778000	13.166000	24.914000	15.500000	48.421069
1064.000000	24.664943	857.674503	36.181174	42.817903	1.000000	375.766000	34.268000	375.998000	33.974000	13.166000	25.076000	17.000000	48.442680
1065.000000	25.643462	828.603223	36.194138	42.740759	1.000000	376.100000	29.382000	376.362000	29.116000	13.166000	25.086000	15.000000	48.447573
1066.000000	26.325087	537.046892	36.204832	42.648056	1.000000	376.464000	25.214000	376.700000	24.988000	13.166000	25.016000	12.000000	48.433353
1067.000000	26.808674	512.496377	36.212934	42.579663	1.000000	376.494000	25.028000	376.724000	24.806000	13.165400	25.086000	12.000000	48.446095
1068.000000	27.270545	505.293451	36.219416	42.519698	1.000000	376.468000	25.010000	376.724000	24.786000	13.165600	24.974000	12.000000	48.411282
1069.000000	27.734686	497.830960	36.223629	42.462326	1.000000	376.504000	24.408000	376.752000	24.182000	13.166000	24.960000	12.500000	48.433352
1070.000000	28.172896	394.156414	36.228490	42.367354	1.000000	377.414000	13.518000	377.672000	13.342000	13.166000	25.062000	5.500000	48.409804
1071.000000	27.951198	-48.612335	36.230111	42.314844	1.000000	378.478000	1.382000	378.736000	1.278000	13.166000	25.060000	2.500000	48.376469
1072.000000	27.417372	-245.317083	36.228490	42.270113	1.000000	378.904000	-2.678000	379.154000	-2.740000	13.166000	24.992000	1.000000	48.376469
1073.000000	26.834279	-231.632711	36.228815	42.233486	1.000000	378.194000	6.378000	378.444000	6.286000	13.166000	25.056000	5.500000	48.346548
1074.000000	26.869933	196.216573	36.222333	42.187135	1.000000	378.270000	5.734000	378.502000	5.650000	13.166000	25.102000	4.500000	48.332327
1075.000000	26.437880	-237.772302	36.216499	42.149859	1.000000	379.912000	-13.810000	380.156000	-13.774000	13.165400	25.606000	0.000000	48.310714
1076.000000	25.071065	-1457.864802	36.211314	42.126845	1.000000	380.092000	-13.764000	380.346000	-13.736000	13.165600	25.188000	0.000000	48.293536
1077.000000	23.484173	-420.295446	36.204184	42.111611	1.000000	379.564000	-5.974000	379.814000	-5.994000	13.166000	24.764000	0.000000	48.268048
1078.000000	22.522832	-375.113240	36.190249	42.099618	1.000000	379.998000	-11.498000	380.242000	-11.470000	13.165400	25.852000	0.000000	48.256783
1079.000000	21.154073	-1593.822188	36.178906	42.097997	1.000000	381.728000	-31.482000	381.962000	-31.290000	13.165000	26.048000	0.000000	48.245975
1080.000000	17.901851	-2413.566160	36.170155	42.101239	1.000000	382.294000	-36.172000	382.518000	-35.952000	13.165600	25.774000	0.000000	48.228796
1081.000000	14.726446	-2218.504268	36.162377	42.110639	1.000000	381.588000	-26.358000	381.820000	-26.226000	13.165400	25.948000	0.000000	48.245517
1082.000000	11.873865	-1996.138511	36.152331	42.122307	1.000000	380.590000	-14.064000	380.854000	-14.006000	13.165000	25.800000	0.000000	48.242560
1083.000000	10.361521	-815.455977	36.134830	42.156666	1.000000	379.626000	-2.584000	379.888000	-2.608000	13.165600	25.166000	0.000000	48.251889
1084.000000	9.931737	-219.483237	36.126404	42.181948	1.000000	379.242000	1.594000	379.498000	1.522000	13.166000	24.844000	0.000000	48.297512
1085.000000	9.516539	-211.916838	36.119274	42.209824	1.000000	379.198000	1.822000	379.446000	1.748000	13.166000	24.870000	0.000000	48.302405
1086.000000	9.125326	-205.323262	36.110200	42.240941	1.000000	379.190000	1.846000	379.430000	1.782000	13.166000	25.142000	0.000000	48.305362
1087.000000	8.735410	-189.628390	36.101450	42.278865	1.000000	379.166000	1.836000	379.430000	1.782000	13.166000	25.310000	0.000000	48.309797
1088.000000	8.359755	-176.506093	36.095292	42.316789	1.000000	378.928000	4.522000	379.202000	4.436000	13.165400	25.190000	2.500000	48.309797
1089.000000	8.454722	179.820726	36.092051	42.349527	1.000000	378.756000	6.634000	379.014000	6.536000	13.166200	25.014000	2.500000	48.262696
1090.000000	8.585342	266.818213	36.089782	42.379023	1.000000	378.698000	7.144000	378.954000	7.054000	13.166400	24.998000	3.500000	48.237667
1091.000000	8.793752	271.382229	36.087190	42.422781	1.000000	378.856000	5.120000	379.110000	5.036000	13.166000	25.036000	3.500000	48.192042
1092.000000	8.757774	-54.600599	36.087514	42.448712	1.000000	378.992000	3.490000	379.224000	3.392000	13.166000	25.046000	1.000000	48.187149
1093.000000	8.552606	-52.417153	36.090755	42.462002	1.000000	379.084000	2.502000	379.328000	2.428000	13.166000	25.104000	0.000000	48.157225
1094.000000	8.195750	-167.448033	36.088162	42.471402	1.000000	379.152000	1.592000	379.424000	1.530000	13.164800	25.872000	0.000000	48.155746
1095.000000	7.511856	-696.771624	36.093347	42.473671	1.000000	379.496000	-2.010000	379.746000	-2.056000	13.163400	27.332000	0.000000	48.122863
1096.000000	5.522731	-1440.980923	36.100477	42.459085	1.000000	379.402000	-0.544000	379.638000	-0.586000	13.162400	28.286000	0.000000	48.120928
1097.000000	4.241484	-842.651772	36.102746	42.444823	1.000000	379.094000	3.194000	379.340000	3.126000	13.162000	28.778000	0.000000	48.141523
1098.000000	2.895089	-935.394191	36.106959	42.427319	1.000000	378.988000	4.396000	379.226000	4.286000	13.161400	29.216000	0.000000	48.094416
1099.000000	1.407702	-972.037175	36.113441	42.405926	1.000000	378.960000	4.688000	379.184000	4.564000	13.161000	29.524000	0.000000	48.116491
1100.000000	0.195816	-666.246613	36.120570	42.377402	1.000000	379.026000	3.778000	379.264000	3.670000	13.162200	28.456000	0.000000	48.135151
1101.000000	-0.000601	-3.170704	36.128024	42.353092	1.000000	379.004000	4.014000	379.242000	3.908000	13.164800	26.114000	0.000000	48.133672
1102.000000	0.784094	872.988838	36.132886	42.326837	1.000000	378.870000	5.634000	379.124000	5.530000	13.164200	26.240000	0.000000	48.149374
1103.000000	1.776226	964.031266	36.139043	42.305120	1.000000	378.378000	11.304000	378.642000	11.180000	13.163000	26.852000	7.500000	48.158704
1104.000000	3.914447	2048.386619	36.150062	42.247100	1.000000	377.466000	21.904000	377.708000	21.716000	13.163000	27.058000	17.500000	48.190107
1105.000000	6.888249	2426.768299	36.158488	42.213714	1.000000	376.420000	33.474000	376.668000	33.188000	13.163000	27.024000	19.500000	48.202394
1106.000000	9.952481	2471.197288	36.163998	42.183893	1.000000	375.610000	41.628000	375.858000	41.280000	13.163000	26.872000	23.000000	48.238689
1107.000000	12.847198	2066.275005	36.172748	42.161852	1.000000	376.808000	26.002000	377.054000	25.774000	13.164800	25.728000	11.000000	48.257347
1108.000000	13.582950	204.457757	36.182795	42.125873	1.000000	377.330000	20.190000	377.580000	20.020000	13.166000	24.852000	4.500000	48.310820
1109.000000	14.329399	1115.747039	36.193165	42.082763	1.000000	376.334000	32.024000	376.584000	31.762000	13.166000	24.852000	15.500000	48.367248
1110.000000	16.024872	1503.342688	36.202240	42.052294	1.000000	375.492000	40.908000	375.742000	40.556000	13.166000	24.870000	20.000000	48.443808
1111.000000	17.977695	1561.679972	36.209370	42.020853	1.000000	375.102000	44.278000	375.352000	43.898000	13.166000	24.766000	20.000000	48.458028
1112.000000	19.770404	1442.258343	36.221037	41.982281	1.000000	375.730000	35.586000	375.986000	35.266000	13.165400	24.836000	17.500000	48.475660
1113.000000	20.872088	726.767232	36.230759	41.935929	1.000000	377.326000	16.516000	377.556000	16.350000	13.165600	24.896000	6.000000	48.487946
1114.000000	20.862689	92.736722	36.237889	41.898654	1.000000	377.944000	9.624000	378.184000	9.522000	13.166000	25.042000	5.000000	48.481575
1115.000000	20.909686	190.095168	36.243722	41.860082	1.000000	377.896000	10.610000	378.162000	10.506000	13.166000	25.066000	6.000000	48.498752
1116.000000	20.962518	173.677692	36.249556	41.823454	1.000000	377.410000	16.708000	377.680000	16.542000	13.166000	25.280000	6.000000	48.500231
1117.000000	21.385171	577.863476	36.258954	41.766731	1.000000	376.680000	25.190000	376.932000	24.962000	13.166000	25.142000	12.500000	48.489424
1118.000000	22.177969	747.965037	36.264464	41.730427	1.000000	376.636000	25.258000	376.888000	25.030000	13.166000	24.984000	12.000000	48.445287
1119.000000	22.764626	689.389878	36.266084	41.697690	1.000000	376.378000	28.164000	376.632000	27.902000	13.166000	24.966000	14.000000	48.418781
1120.000000	23.629379	772.775122	36.268029	41.664628	1.000000	376.080000	30.940000	376.348000	30.668000	13.166000	24.996000	14.000000	48.423218
1121.000000	24.422825	737.041678	36.270297	41.616332	1.000000	376.552000	24.462000	376.802000	24.232000	13.166000	25.142000	13.000000	48.403083
1122.000000	24.922294	412.174543	36.271270	41.580352	1.000000	377.288000	15.542000	377.518000	15.380000	13.165400	25.030000	9.500000	48.382492
1123.000000	25.037033	156.697825	36.273862	41.555718	1.000000	377.680000	10.970000	377.940000	10.870000	13.165600	24.856000	6.500000	48.369751
1124.000000	24.995221	91.914767	36.269973	41.533353	1.000000	377.724000	11.082000	377.998000	10.990000	13.166000	24.904000	5.500000	48.366792
1125.000000	24.923267	209.497641	36.266084	41.503208	1.000000	377.514000	13.888000	377.772000	13.752000	13.166000	24.948000	8.500000	48.343243
1126.000000	25.120656	308.305331	36.259603	41.488622	1.000000	377.240000	17.328000	377.478000	17.168000	13.166000	25.012000	9.000000	48.347681
1127.000000	25.363746	375.078395	36.256038	41.483760	1.000000	376.846000	21.746000	377.106000	21.562000	13.166000	24.988000	10.500000	48.336419
1128.000000	25.801957	520.867346	36.251825	41.478898	1.000000	376.668000	23.208000	376.936000	23.008000	13.166000	24.898000	11.500000	48.333460
1129.000000	26.278737	494.348464	36.243074	41.473388	1.000000	376.830000	20.738000	377.096000	20.556000	13.166000	24.936000	10.500000	48.319240
1130.000000	26.610961	399.088147	36.230111	41.469822	1.000000	377.008000	18.414000	377.290000	18.256000	13.166000	25.010000	10.000000	48.311390
1131.000000	26.867988	319.098903	36.223953	41.468526	1.000000	377.198000	16.242000	377.458000	16.080000	13.166000	25.060000	9.000000	48.319240
1132.000000	27.015139	235.713691	36.215203	41.474360	1.000000	377.434000	13.578000	377.674000	13.432000	13.166000	25.194000	7.500000	48.325610
1133.000000	27.063757	185.120175	36.203860	41.478898	1.000000	377.572000	12.010000	377.818000	11.886000	13.165400	25.180000	7.500000	48.309910
1134.000000	27.066350	154.794349	36.186684	41.488622	1.000000	377.696000	10.448000	377.964000	10.352000	13.165000	25.084000	7.000000	48.295690
1135.000000	27.015139	82.678585	36.176637	41.501263	1.000000	377.958000	7.670000	378.208000	7.572000	13.165600	25.024000	6.000000	48.307978
1136.000000	26.822287	4.527942	36.168211	41.512608	1.000000	378.114000	6.364000	378.350000	6.236000	13.166000	25.114000	5.000000	48.297169
1137.000000	26.625546	8.356523	36.158488	41.522008	1.000000	378.118000	6.396000	378.382000	6.262000	13.166000	25.166000	5.000000	48.268727
1138.000000	26.428805	3.230118	36.139367	41.539835	1.000000	378.128000	6.420000	378.402000	6.314000	13.166000	25.108000	5.000000	48.270207
1139.000000	26.235305	-0.749456	36.128348	41.550532	1.000000	378.272000	4.776000	378.548000	4.692000	13.166000	24.978000	4.500000	48.254506
1140.000000	25.952997	-83.028641	36.118302	41.558635	1.000000	378.846000	-1.810000	379.096000	-1.854000	13.166000	25.030000	3.000000	48.207403
1141.000000	25.354995	-406.567838	36.106311	41.568035	1.000000	379.224000	-5.650000	379.454000	-5.646000	13.165400	25.140000	0.000000	48.213775
1142.000000	24.621187	-419.019967	36.091727	41.590725	1.000000	379.356000	-6.454000	379.604000	-6.434000	13.165000	26.048000	0.000000	48.185331
1143.000000	23.632296	-854.758009	36.075199	41.618276	1.000000	380.464000	-18.808000	380.724000	-18.722000	13.165600	26.256000	0.000000	48.189770
1144.000000	21.694057	-1252.793780	36.063856	41.639345	1.000000	380.884000	-22.504000	381.138000	-22.422000	13.165400	25.952000	0.000000	48.169629
1145.000000	19.948346	-1099.174279	36.053485	41.658145	1.000000	381.156000	-24.636000	381.382000	-24.532000	13.165000	25.848000	0.000000	48.134815
1146.000000	17.805263	-1737.194655	36.042466	41.687317	1.000000	381.094000	-22.948000	381.316000	-22.838000	13.165000	25.818000	0.000000	48.111261
1147.000000	15.714689	-1396.382407	36.024966	41.718110	1.000000	380.742000	-17.970000	380.996000	-17.892000	13.165600	25.908000	0.000000	48.120592
1148.000000	13.700930	-1448.028484	36.015243	41.741772	1.000000	380.988000	-20.398000	381.246000	-20.304000	13.166000	26.062000	0.000000	48.129923
1149.000000	10.752409	-2479.199319	36.007141	41.766406	1.000000	380.960000	-19.222000	381.186000	-19.130000	13.166000	25.980000	0.000000	48.144145
1150.000000	7.238299	-2474.183873	35.998067	41.786827	1.000000	379.876000	-6.052000	380.116000	-6.044000	13.163000	28.496000	0.000000	48.157916
1151.000000	3.805867	-2453.300595	35.985103	41.831558	1.000000	379.062000	3.152000	379.310000	3.082000	13.157400	32.370000	0.000000	48.170658
1152.000000	0.653150	-2062.852557	35.977325	41.857813	1.000000	378.954000	4.252000	379.194000	4.156000	13.159800	30.328000	0.000000	48.211391
1153.000000	-0.012917	-12.639512	35.972464	41.884716	1.000000	379.012000	3.440000	379.246000	3.346000	13.163000	28.032000	0.000000	48.216282
1154.000000	-0.003193	-3.408505	35.965982	41.909674	1.000000	379.022000	3.000000	379.276000	2.904000	13.163000	28.040000	0.000000	48.209911
1155.000000	-0.002545	-3.170704	35.962093	41.940143	1.000000	379.010000	2.982000	379.280000	2.900000	13.163000	27.908000	0.000000	48.239383
1156.000000	-0.003842	-3.019376	35.960473	41.961860	1.000000	379.022000	2.892000	379.286000	2.810000	13.163000	27.808000	0.000000	48.200130
1157.000000	-0.003842	-2.932902	35.957880	41.970288	1.000000	379.018000	2.876000	379.278000	2.780000	13.163000	27.770000	0.000000	48.198650
1158.000000	-0.003842	-2.759956	35.958528	41.975150	1.000000	379.016000	2.876000	379.270000	2.788000	13.163000	27.696000	0.000000	48.181468
1159.000000	-0.003842	-2.911284	35.962093	41.975150	1.000000	379.026000	2.848000	379.252000	2.774000	13.163000	27.696000	0.000000	48.145174
1160.000000	-0.004166	-2.846429	35.964362	41.974177	1.000000	379.030000	2.888000	379.246000	2.794000	13.163000	27.666000	0.000000	48.123102
1161.000000	-0.004166	-2.889666	35.968899	41.971908	1.000000	379.030000	2.890000	379.286000	2.798000	13.163000	27.624000	0.000000	48.102959
1162.000000	-0.004166	-2.824811	35.971492	41.966074	1.000000	379.030000	2.882000	379.298000	2.796000	13.163600	27.680000	0.000000	48.102509
1163.000000	-0.004166	-2.759956	35.974733	41.953757	1.000000	379.030000	2.908000	379.290000	2.800000	13.163400	27.726000	0.000000	48.043108
1164.000000	-0.004166	-2.738338	35.985103	41.925557	1.000000	379.030000	2.896000	379.278000	2.794000	13.163000	27.796000	0.000000	48.044589
1165.000000	-0.004490	-2.759956	35.990937	41.902543	1.000000	379.030000	2.898000	379.270000	2.802000	13.163600	27.702000	0.000000	48.044589
1166.000000	-0.004490	-2.759956	35.997743	41.878881	1.000000	379.030000	2.916000	379.288000	2.828000	13.163400	27.682000	0.000000	48.019553
1167.000000	-0.004166	-2.738338	36.004872	41.851330	1.000000	379.018000	3.292000	379.270000	3.200000	13.152200	38.134000	0.000000	48.003850
1168.000000	0.196465	63.211223	36.018484	41.804006	1.000000	378.740000	6.612000	378.992000	6.512000	13.156400	34.090000	0.000000	48.041628
1169.000000	1.960651	1893.382804	36.029179	41.766406	1.000000	377.918000	16.118000	378.160000	15.964000	13.164000	26.884000	13.000000	48.031846
1170.000000	4.997332	2462.263903	36.035985	41.734965	1.000000	376.794000	29.118000	377.024000	28.862000	13.164000	26.876000	21.000000	48.022514
1171.000000	8.353596	2666.650283	36.042142	41.709034	1.000000	375.568000	42.564000	375.798000	42.216000	13.164000	26.868000	24.500000	48.044589
1172.000000	11.800614	2660.377443	36.058022	41.656524	1.000000	374.622000	52.034000	374.852000	51.618000	13.165200	25.958000	25.500000	48.050510
1173.000000	14.955923	2500.182123	36.070013	41.616656	1.000000	373.664000	61.512000	373.906000	61.012000	13.165400	25.048000	29.000000	48.113321
1174.000000	18.117391	2454.238998	36.078440	41.577759	1.000000	372.956000	67.838000	373.224000	67.274000	13.165600	24.848000	30.500000	48.168277
1175.000000	20.960573	2143.971606	36.088486	41.541132	1.000000	374.142000	51.698000	374.398000	51.262000	13.166000	24.876000	26.500000	48.256114
1176.000000	22.608724	1087.151620	36.100153	41.496401	1.000000	375.578000	33.938000	375.806000	33.646000	13.166000	24.978000	16.500000	48.325285
1177.000000	23.480283	683.030536	36.110848	41.433519	1.000000	377.538000	10.856000	377.776000	10.722000	13.166000	24.964000	7.500000	48.383194
1178.000000	23.067030	-306.842710	36.119598	41.394623	1.000000	378.802000	-2.932000	379.040000	-2.982000	13.166000	24.944000	0.500000	48.431771
1179.000000	22.422355	-395.391187	36.128024	41.358644	1.000000	380.550000	-22.564000	380.786000	-22.464000	13.165400	25.494000	0.000000	48.456799
1180.000000	20.022245	-2023.118138	36.135154	41.308078	1.000000	382.128000	-39.142000	382.338000	-38.900000	13.165000	25.796000	0.000000	48.447469
1181.000000	16.488363	-2534.088186	36.145849	41.249734	1.000000	381.926000	-34.376000	382.164000	-34.160000	13.165600	25.862000	0.000000	48.462720
1182.000000	13.203730	-2312.025015	36.150386	41.209541	1.000000	381.222000	-24.524000	381.468000	-24.398000	13.165400	25.996000	0.000000	48.430291
1183.000000	10.034159	-2285.131854	36.155572	41.180369	1.000000	380.594000	-16.178000	380.830000	-16.124000	13.165000	26.178000	0.000000	48.438140
1184.000000	6.648400	-2267.923691	36.160433	41.151521	1.000000	379.580000	-4.060000	379.832000	-4.072000	13.160200	30.320000	0.000000	48.412664
1185.000000	3.472671	-2631.738064	36.165294	41.114245	1.000000	378.960000	3.278000	379.208000	3.202000	13.160600	30.182000	0.000000	48.437692
1186.000000	0.394502	-1538.349671	36.169507	41.098363	1.000000	378.916000	3.576000	379.156000	3.464000	13.162400	28.236000	0.000000	48.439620
1187.000000	-0.069314	-4.100290	36.171776	41.086694	1.000000	378.940000	3.064000	379.162000	2.968000	13.162600	28.128000	0.000000	48.441100
1188.000000	-0.045653	-3.192322	36.172748	41.079887	1.000000	378.934000	3.040000	379.162000	2.954000	13.163000	28.086000	0.000000	48.453391
1189.000000	-0.003518	-2.997757	36.178257	41.072756	1.000000	378.942000	3.010000	379.170000	2.908000	13.163000	28.192000	0.000000	48.428362
1190.000000	-0.004166	-2.954521	36.178257	41.067246	1.000000	378.944000	2.924000	379.170000	2.826000	13.163000	27.954000	0.000000	48.398445
1191.000000	-0.003842	-2.846429	36.180526	41.066921	1.000000	378.940000	2.898000	379.176000	2.802000	13.162400	27.846000	0.000000	48.367047
1192.000000	-0.004166	-2.824811	36.184739	41.064977	1.000000	378.928000	2.916000	379.186000	2.822000	13.162600	27.910000	0.000000	48.350900
1193.000000	-0.004166	-2.846429	36.188952	41.067894	1.000000	378.932000	2.926000	379.190000	2.830000	13.163000	27.838000	0.000000	48.311651
1194.000000	-0.004166	-2.803193	36.192841	41.070811	1.000000	378.958000	2.894000	379.184000	2.806000	13.163000	27.754000	0.000000	48.264550
1195.000000	-0.004166	-2.824811	36.199647	41.066921	1.000000	378.964000	2.900000	379.168000	2.808000	13.163000	27.766000	0.000000	48.223817
1196.000000	-0.004166	-2.824811	36.205156	41.063680	1.000000	378.924000	3.280000	379.142000	3.180000	13.165400	25.846000	0.000000	48.208116
1197.000000	0.331299	493.526512	36.210990	41.053308	1.000000	378.690000	5.992000	378.944000	5.916000	13.165200	26.008000	0.000000	48.198785
1198.000000	1.859525	1515.650405	36.222009	41.029970	1.000000	378.202000	11.726000	378.454000	11.618000	13.164000	26.944000	8.500000	48.162493
1199.000000	4.016869	1761.761541	36.227842	41.010846	1.000000	377.754000	16.820000	377.994000	16.668000	13.164000	26.932000	12.500000	48.163974
1200.000000	6.153145	1758.322301	36.235620	40.993018	1.000000	376.548000	30.718000	376.800000	30.462000	13.164000	27.030000	18.000000	48.181156
1201.000000	9.310075	2753.496678	36.243722	40.968060	1.000000	375.912000	36.668000	376.154000	36.378000	13.164000	27.156000	24.500000	48.179675
1202.000000	12.045325	1621.790959	36.254093	40.929164	1.000000	377.454000	17.118000	377.702000	16.926000	13.164000	27.146000	6.000000	48.228260
1203.000000	12.254058	3.121966	36.263168	40.895778	1.000000	378.198000	8.420000	378.476000	8.298000	13.164000	26.750000	4.500000	48.279805
1204.000000	12.463764	350.073645	36.269001	40.868226	1.000000	378.222000	8.564000	378.476000	8.448000	13.165200	25.574000	4.000000	48.316093
1205.000000	12.605728	165.393247	36.278724	40.846185	1.000000	378.278000	8.200000	378.520000	8.098000	13.166000	24.908000	4.000000	48.385260
1206.000000	12.753203	253.666927	36.292659	40.805668	1.000000	378.254000	8.448000	378.492000	8.376000	13.166000	24.994000	4.500000	48.391629
1207.000000	12.899705	221.307842	36.302058	40.779089	1.000000	378.312000	7.824000	378.548000	7.746000	13.166000	25.082000	4.000000	48.438281
1208.000000	13.011851	185.444631	36.310160	40.756075	1.000000	377.668000	15.676000	377.926000	15.526000	13.166000	25.024000	5.500000	48.414732
1209.000000	13.814372	944.845085	36.317938	40.732089	1.000000	376.500000	29.046000	376.752000	28.796000	13.166000	25.076000	14.500000	48.405402
1210.000000	15.449882	1402.588131	36.326040	40.706807	1.000000	375.912000	35.132000	376.146000	34.842000	13.166000	25.170000	17.000000	48.394146
1211.000000	17.058491	1298.632286	36.336735	40.671476	1.000000	376.074000	32.046000	376.316000	31.774000	13.166000	25.268000	16.500000	48.391184
1212.000000	18.330986	894.294798	36.342892	40.647814	1.000000	376.446000	27.034000	376.696000	26.804000	13.166000	25.158000	12.000000	48.383334
1213.000000	19.243709	849.346792	36.349698	40.624476	1.000000	376.146000	30.222000	376.414000	29.964000	13.165400	25.224000	14.500000	48.369116
1214.000000	20.415079	1014.084057	36.357152	40.596600	1.000000	376.480000	25.482000	376.754000	25.240000	13.165000	25.250000	15.500000	48.394146
1215.000000	21.162824	506.569645	36.364606	40.554139	1.000000	376.948000	19.728000	377.188000	19.530000	13.165600	25.112000	10.000000	48.395627
1216.000000	21.627613	488.659667	36.367199	40.525615	1.000000	377.250000	16.208000	377.476000	16.042000	13.166000	25.078000	9.500000	48.411326
1217.000000	21.930989	246.918241	36.372708	40.506491	1.000000	378.288000	4.014000	378.506000	3.930000	13.166000	25.030000	4.500000	48.401995
1218.000000	21.495371	-341.799470	36.372384	40.489312	1.000000	378.782000	-1.068000	379.004000	-1.084000	13.166000	25.038000	0.000000	48.395627
1219.000000	20.961546	-133.982932	36.374328	40.461436	1.000000	378.076000	7.848000	378.318000	7.776000	13.166000	25.070000	6.000000	48.397108
1220.000000	21.189402	368.546012	36.373680	40.443608	1.000000	377.340000	16.512000	377.590000	16.368000	13.166000	25.118000	9.500000	48.389258
1221.000000	21.628585	466.748063	36.372708	40.429995	1.000000	377.290000	16.856000	377.534000	16.696000	13.166000	25.060000	9.500000	48.352972
1222.000000	21.932934	310.944240	36.373032	40.418974	1.000000	377.510000	13.982000	377.738000	13.852000	13.166600	25.090000	8.000000	48.359341
1223.000000	22.129351	197.773962	36.371736	40.405036	1.000000	377.920000	9.000000	378.152000	8.890000	13.167000	25.012000	5.000000	48.346604
1224.000000	22.032439	38.357891	36.366226	40.399202	1.000000	378.278000	4.934000	378.512000	4.824000	13.166400	24.974000	4.000000	48.334310
1225.000000	21.789024	-65.215176	36.362337	40.394016	1.000000	378.388000	3.946000	378.636000	3.830000	13.166000	25.064000	3.500000	48.338754
1226.000000	21.543341	-52.049642	36.358124	40.397905	1.000000	378.268000	5.502000	378.522000	5.400000	13.166000	25.064000	4.000000	48.318610
1227.000000	21.384846	11.817387	36.352291	40.404064	1.000000	378.792000	-0.362000	379.030000	-0.410000	13.165400	25.670000	0.000000	48.324535
1228.000000	20.572277	-547.281222	36.340300	40.417029	1.000000	379.134000	-3.854000	379.382000	-3.892000	13.165600	25.448000	0.000000	48.310317
1229.000000	19.787258	-386.246655	36.333494	40.431940	1.000000	379.114000	-3.014000	379.368000	-3.058000	13.166000	24.954000	0.000000	48.291654
1230.000000	19.164623	-341.453578	36.326688	40.440043	1.000000	378.314000	6.836000	378.552000	6.736000	13.166000	24.994000	6.000000	48.289730
1231.000000	19.383404	299.804582	36.317938	40.452036	1.000000	377.662000	14.074000	377.916000	13.928000	13.166000	25.098000	7.500000	48.277435
1232.000000	19.677381	362.121782	36.301085	40.466622	1.000000	377.794000	12.042000	378.046000	11.910000	13.165400	25.286000	6.500000	48.255366
1233.000000	19.798278	192.798969	36.292335	40.477319	1.000000	378.560000	2.678000	378.800000	2.606000	13.165600	25.180000	5.000000	48.255366
1234.000000	19.397018	-338.318927	36.282613	40.490284	1.000000	380.090000	-15.188000	380.336000	-15.126000	13.165400	25.604000	0.000000	48.247516
1235.000000	17.553422	-1473.213783	36.275159	40.504546	1.000000	380.866000	-23.038000	381.098000	-22.914000	13.165600	25.770000	0.000000	48.242628
1236.000000	15.533505	-1574.214404	36.260575	40.527560	1.000000	380.938000	-22.514000	381.170000	-22.400000	13.166000	25.846000	0.000000	48.237741
1237.000000	12.959667	-1923.068692	36.250852	40.550249	1.000000	380.898000	-21.016000	381.132000	-20.930000	13.166000	25.840000	0.000000	48.207821
1238.000000	9.927848	-2189.816791	36.243074	40.567104	1.000000	380.352000	-13.706000	380.576000	-13.666000	13.166000	25.908000	0.000000	48.236259
1239.000000	7.592238	-1589.563386	36.232380	40.583959	1.000000	379.744000	-6.188000	379.976000	-6.186000	13.164200	27.172000	0.000000	48.218635
1240.000000	5.736326	-1238.525715	36.222009	40.616049	1.000000	379.278000	-0.652000	379.530000	-0.692000	13.161800	28.786000	0.000000	48.253442
1241.000000	4.356223	-950.764788	36.214879	40.638090	1.000000	378.940000	3.002000	379.200000	2.918000	13.160400	29.686000	0.000000	48.275069
1242.000000	2.740808	-1176.675814	36.210018	40.658186	1.000000	378.804000	4.406000	379.040000	4.300000	13.158800	30.798000	0.000000	48.284843
1243.000000	0.894944	-1387.454056	36.202564	40.671476	1.000000	378.786000	4.266000	379.042000	4.156000	13.161000	29.320000	0.000000	48.294174
1244.000000	0.009447	-229.406027	36.196730	40.689303	1.000000	378.850000	3.394000	379.118000	3.296000	13.163000	28.114000	0.000000	48.322169
1245.000000	-0.002869	-3.192322	36.189600	40.711993	1.000000	378.890000	3.028000	379.138000	2.938000	13.162400	28.350000	0.000000	48.257887
1246.000000	-0.004166	-2.976139	36.186360	40.725931	1.000000	378.890000	3.022000	379.130000	2.926000	13.162600	28.172000	0.000000	48.275069
1247.000000	-0.003518	-2.889666	36.186035	40.733710	1.000000	378.896000	3.010000	379.142000	2.916000	13.163000	28.108000	0.000000	48.259368
1248.000000	-0.004166	-2.738338	36.185387	40.740517	1.000000	378.900000	2.902000	379.156000	2.818000	13.163000	27.898000	0.000000	48.247073
1249.000000	-0.004166	-2.846429	36.184091	40.749593	1.000000	378.894000	2.836000	379.154000	2.756000	13.163600	27.728000	0.000000	48.259368
1250.000000	-0.004166	-2.803193	36.184091	40.751537	1.000000	378.914000	2.828000	379.150000	2.748000	13.163400	27.644000	0.000000	48.204416
1251.000000	-0.003193	-2.738338	36.184415	40.752510	1.000000	378.816000	4.062000	379.054000	3.964000	13.162400	27.832000	0.000000	48.194642
1252.000000	1.013572	819.431927	36.184739	40.749268	1.000000	378.746000	4.860000	378.984000	4.744000	13.162000	28.348000	0.000000	48.186791
1253.000000	1.318244	223.232948	36.188628	40.740517	1.000000	378.750000	4.756000	378.986000	4.648000	13.162000	28.544000	0.000000	48.178940
1254.000000	1.271895	52.006674	36.190573	40.732737	1.000000	378.756000	4.700000	379.008000	4.594000	13.162600	27.992000	0.000000	48.153906
1255.000000	1.222953	86.442275	36.193165	40.723986	1.000000	378.760000	4.766000	379.008000	4.650000	13.162400	28.012000	0.000000	48.149019
1256.000000	1.171418	80.840001	36.195434	40.713289	1.000000	378.754000	4.804000	378.994000	4.684000	13.163200	27.534000	0.000000	48.153906
1257.000000	1.576568	504.536387	36.201592	40.697407	1.000000	378.552000	7.176000	378.798000	7.080000	13.164000	26.972000	0.000000	48.151984
1258.000000	2.745021	1374.468571	36.206453	40.678607	1.000000	378.234000	10.728000	378.490000	10.624000	13.164000	26.932000	9.000000	48.156870
1259.000000	4.394793	1185.851243	36.210018	40.665317	1.000000	378.176000	11.254000	378.418000	11.146000	13.164600	26.922000	7.500000	48.163239
1260.000000	5.469900	868.641124	36.215527	40.652352	1.000000	378.178000	11.030000	378.432000	10.930000	13.164400	27.078000	7.000000	48.188273
1261.000000	6.394938	806.669982	36.222981	40.630311	1.000000	377.832000	14.836000	378.102000	14.706000	13.164000	27.154000	7.500000	48.189756
1262.000000	7.712811	1291.580767	36.228815	40.598545	1.000000	377.002000	24.320000	377.272000	24.110000	13.164000	27.208000	14.000000	48.206939
1263.000000	9.847790	1835.607880	36.234324	40.576504	1.000000	377.838000	13.434000	378.120000	13.256000	13.164000	27.140000	10.000000	48.234937
1264.000000	10.156028	-221.796393	36.239509	40.556732	1.000000	378.802000	2.082000	379.050000	1.982000	13.162800	27.792000	0.000000	48.260410
1265.000000	9.563537	-387.370805	36.244371	40.538580	1.000000	378.908000	1.432000	379.128000	1.340000	13.162000	28.256000	0.000000	48.252560
1266.000000	8.929558	-383.003912	36.255065	40.501305	1.000000	379.184000	-1.640000	379.428000	-1.692000	13.162600	27.952000	0.000000	48.285443
1267.000000	7.720266	-937.145272	36.261223	40.475374	1.000000	378.532000	6.760000	378.780000	6.674000	13.163600	27.124000	0.000000	48.297739
1268.000000	8.219087	1003.874499	36.266408	40.454953	1.000000	376.876000	26.344000	377.128000	26.124000	13.164000	26.778000	16.000000	48.291372
1269.000000	10.630540	2087.148395	36.271918	40.435505	1.000000	375.714000	38.894000	375.980000	38.566000	13.164600	26.644000	19.500000	48.296257
1270.000000	13.196275	2090.241550	36.280020	40.407305	1.000000	374.530000	51.496000	374.794000	51.070000	13.165000	25.806000	23.500000	48.267821
1271.000000	16.161002	2479.373607	36.289418	40.384292	1.000000	373.738000	58.894000	373.992000	58.412000	13.165600	25.108000	29.000000	48.274189
1272.000000	18.978903	2084.855566	36.294928	40.367112	1.000000	374.552000	47.540000	374.790000	47.122000	13.166000	24.966000	22.500000	48.277153
1273.000000	20.596262	1177.350486	36.298493	40.347664	1.000000	375.414000	36.450000	375.632000	36.122000	13.166000	24.982000	17.000000	48.314922
1274.000000	21.746240	894.511103	36.306919	40.325623	1.000000	376.182000	26.832000	376.434000	26.598000	13.166000	24.984000	12.500000	48.354171
1275.000000	22.334519	506.504754	36.310484	40.300989	1.000000	376.656000	21.364000	376.918000	21.180000	13.166000	25.016000	10.500000	48.391937
1276.000000	22.823940	530.990377	36.315345	40.284782	1.000000	376.628000	21.984000	376.884000	21.792000	13.166000	25.058000	11.000000	48.413565
1277.000000	23.358414	524.674298	36.318910	40.272141	1.000000	376.646000	21.574000	376.900000	21.368000	13.166000	24.908000	11.000000	48.407636
1278.000000	23.846863	505.704429	36.319882	40.255934	1.000000	376.660000	21.166000	376.904000	20.968000	13.166000	25.004000	11.000000	48.409118
1279.000000	24.310031	449.984496	36.322475	40.232596	1.000000	377.402000	12.062000	377.654000	11.896000	13.166000	25.176000	9.500000	48.393419
1280.000000	24.312624	-19.687072	36.322475	40.218010	1.000000	378.486000	-0.202000	378.716000	-0.268000	13.166000	25.098000	3.000000	48.385132
1281.000000	23.745090	-336.373282	36.319882	40.209582	1.000000	378.528000	0.532000	378.750000	0.462000	13.166000	25.036000	0.500000	48.378764
1282.000000	23.338319	-13.201587	36.318262	40.193051	1.000000	377.688000	11.022000	377.930000	10.900000	13.166000	25.106000	8.500000	48.364548
1283.000000	23.547700	288.535140	36.313725	40.179762	1.000000	377.562000	12.182000	377.794000	12.076000	13.166000	25.114000	8.000000	48.352250
1284.000000	23.598263	138.744590	36.306919	40.172307	1.000000	377.774000	9.392000	378.024000	9.290000	13.166000	25.042000	5.000000	48.322333
1285.000000	23.544459	128.989278	36.301734	40.169065	1.000000	377.820000	8.802000	378.090000	8.704000	13.165400	24.962000	6.000000	48.283083
1286.000000	23.546404	123.257221	36.295576	40.167121	1.000000	377.816000	8.964000	378.074000	8.862000	13.165600	24.996000	6.000000	48.281601
1287.000000	23.545432	118.238968	36.281964	40.167121	1.000000	377.272000	15.732000	377.522000	15.580000	13.166000	25.010000	6.500000	48.278198
1288.000000	23.801811	456.516879	36.272566	40.172955	1.000000	377.340000	14.594000	377.578000	14.450000	13.166000	24.894000	10.500000	48.240429
1289.000000	24.022537	187.694193	36.264464	40.178790	1.000000	376.960000	18.822000	377.208000	18.660000	13.166000	24.902000	7.500000	48.231096
1290.000000	24.411157	545.526013	36.252473	40.181383	1.000000	377.108000	16.978000	377.362000	16.824000	13.166000	24.944000	8.000000	48.224728
1291.000000	24.473388	193.858859	36.242750	40.194996	1.000000	377.110000	16.834000	377.354000	16.668000	13.166000	24.934000	7.500000	48.210510
1292.000000	24.774495	438.563641	36.224601	40.217362	1.000000	376.796000	20.166000	377.048000	19.976000	13.166000	24.978000	10.500000	48.185475
1293.000000	25.155337	427.445611	36.214879	40.237782	1.000000	376.772000	19.972000	377.032000	19.776000	13.166000	24.932000	10.500000	48.213476
1294.000000	25.497932	353.642662	36.204508	40.257554	1.000000	376.876000	18.784000	377.100000	18.584000	13.166000	24.970000	9.500000	48.194808
1295.000000	25.776351	342.546264	36.190249	40.280568	1.000000	377.084000	16.180000	377.326000	16.010000	13.166000	24.922000	9.000000	48.158521
1296.000000	25.938087	247.610414	36.174368	40.312009	1.000000	377.120000	15.718000	377.384000	15.568000	13.166000	25.054000	8.500000	48.171256
1297.000000	26.132235	345.444738	36.163025	40.337292	1.000000	376.222000	26.496000	376.458000	26.268000	13.166000	25.034000	14.500000	48.172739
1298.000000	26.914013	746.083191	36.152331	40.356416	1.000000	375.698000	31.992000	375.924000	31.712000	13.166000	25.032000	15.000000	48.152153
1299.000000	27.609575	608.989637	36.140340	40.374567	1.000000	376.048000	26.524000	376.302000	26.268000	13.166000	25.046000	12.500000	48.133485
1300.000000	28.072743	465.190673	36.120895	40.414112	1.000000	376.278000	23.478000	376.548000	23.250000	13.165400	25.028000	11.500000	48.139417
1301.000000	28.429275	426.364091	36.108255	40.440691	1.000000	376.314000	23.094000	376.584000	22.892000	13.165000	25.028000	11.500000	48.139417
1302.000000	28.772843	401.986622	36.096912	40.465325	1.000000	377.128000	13.224000	377.368000	13.082000	13.165600	25.074000	9.500000	48.142383
1303.000000	28.679172	-112.775397	36.084273	40.490284	1.000000	378.566000	-3.554000	378.816000	-3.580000	13.165400	25.986000	0.000000	48.140900
1304.000000	27.764829	-624.609807	36.067097	40.527884	1.000000	381.582000	-38.784000	381.822000	-38.556000	13.165600	26.090000	0.000000	48.139417
1305.000000	25.012724	-2468.346932	36.048948	40.567428	1.000000	382.968000	-52.458000	383.194000	-52.116000	13.166000	25.890000	0.000000	48.112462
1306.000000	21.803286	-2246.672906	36.036633	40.590442	1.000000	382.706000	-46.578000	382.966000	-46.284000	13.166000	25.898000	0.000000	48.128600
1307.000000	18.548795	-2434.103545	36.023993	40.617345	1.000000	382.510000	-42.066000	382.730000	-41.814000	13.166000	25.736000	0.000000	48.088908
1308.000000	14.986715	-2668.813456	36.003900	40.651379	1.000000	381.872000	-32.966000	382.076000	-32.762000	13.165400	25.720000	0.000000	48.113945
1309.000000	11.413290	-2564.029535	35.984779	40.690276	1.000000	381.110000	-23.090000	381.330000	-22.964000	13.165600	25.574000	0.000000	48.123714
1310.000000	7.845052	-2681.525020	35.972140	40.717179	1.000000	379.968000	-9.208000	380.194000	-9.178000	13.163600	27.280000	0.000000	48.158085
1311.000000	4.817446	-2207.565411	35.962741	40.741165	1.000000	379.026000	1.620000	379.256000	1.550000	13.162600	28.182000	0.000000	48.173352
1312.000000	1.407053	-2361.336352	35.949778	40.770661	1.000000	378.736000	4.192000	379.002000	4.070000	13.163000	27.994000	0.000000	48.220890
1313.000000	-0.011621	-689.767301	35.931629	40.817337	1.000000	378.754000	3.444000	379.014000	3.338000	13.163000	27.962000	0.000000	48.245924
1314.000000	-0.003193	-3.624688	35.923203	40.845861	1.000000	378.778000	2.940000	379.036000	2.856000	13.163000	28.014000	0.000000	48.242524
1315.000000	-0.002869	-3.235558	35.913481	40.867902	1.000000	378.788000	2.970000	379.046000	2.872000	13.163000	28.016000	0.000000	48.225340
1316.000000	-0.003518	-3.040994	35.906027	40.890592	1.000000	378.770000	2.960000	379.032000	2.862000	13.163000	27.962000	0.000000	48.216006
1317.000000	-0.004490	-2.954521	35.895332	40.913281	1.000000	378.756000	2.868000	379.020000	2.778000	13.163600	27.788000	0.000000	48.196904
1318.000000	-0.004166	-2.868048	35.893063	40.934998	1.000000	378.772000	2.832000	379.026000	2.754000	13.163400	27.608000	0.000000	48.144915
1319.000000	-0.004490	-2.911284	35.887878	40.945695	1.000000	378.756000	2.840000	379.024000	2.776000	13.163000	27.686000	0.000000	48.126246
1320.000000	-0.003842	-2.824811	35.884637	40.950557	1.000000	378.770000	2.852000	379.020000	2.774000	13.163000	27.638000	0.000000	48.074255
1321.000000	-0.004166	-2.781574	35.884637	40.956715	1.000000	378.790000	2.830000	379.026000	2.752000	13.163000	27.682000	0.000000	48.061953
1322.000000	-0.004166	-2.781574	35.885934	40.959632	1.000000	378.784000	2.816000	379.036000	2.734000	13.163000	27.740000	0.000000	48.032030
1323.000000	-0.004166	-2.781574	35.886258	40.958984	1.000000	378.786000	2.850000	379.040000	2.766000	13.163000	27.678000	0.000000	48.005075
1324.000000	-0.004166	-2.868048	35.891119	40.960605	1.000000	378.796000	2.864000	379.040000	2.796000	13.163000	27.656000	0.000000	47.980035
1325.000000	-0.004490	-2.738338	35.893063	40.952502	1.000000	378.800000	2.854000	379.046000	2.788000	13.163000	27.642000	0.000000	47.964332
1326.000000	-0.004166	-2.824811	35.901165	40.937915	1.000000	378.800000	2.850000	379.044000	2.768000	13.163000	27.786000	0.000000	47.956046
1327.000000	-0.003842	-2.803193	35.905379	40.926247	1.000000	378.818000	2.832000	379.040000	2.754000	13.163000	27.722000	0.000000	47.928039
1328.000000	-0.004166	-2.738338	35.912184	40.911660	1.000000	378.818000	2.808000	379.058000	2.732000	13.163600	27.436000	0.000000	47.946710
1329.000000	-0.004166	-2.738338	35.917694	40.892212	1.000000	378.798000	2.812000	379.058000	2.744000	13.163400	27.530000	0.000000	47.929523
1330.000000	-0.004166	-2.759956	35.930009	40.865633	1.000000	378.802000	2.838000	379.062000	2.760000	13.163600	27.652000	0.000000	47.932490
1331.000000	-0.004166	-2.759956	35.938435	40.841971	1.000000	378.798000	2.892000	379.052000	2.790000	13.162800	27.640000	0.000000	47.946711
1332.000000	-0.004166	-2.759956	35.947510	40.819282	1.000000	378.802000	2.878000	379.052000	2.780000	13.163200	27.538000	0.000000	47.940342
1333.000000	-0.004166	-2.738338	35.956584	40.799185	1.000000	378.822000	2.838000	379.072000	2.760000	13.163400	27.626000	0.000000	47.962415
1334.000000	-0.004166	-2.738338	35.970195	40.761586	1.000000	378.824000	2.848000	379.098000	2.766000	13.163600	27.742000	0.000000	47.956046
1335.000000	-0.004490	-2.738338	35.981862	40.725606	1.000000	378.826000	2.872000	379.098000	2.782000	13.163400	27.690000	0.000000	47.979602
1336.000000	-0.004166	-2.803193	35.991261	40.691896	1.000000	378.818000	2.874000	379.060000	2.796000	13.163000	27.632000	0.000000	47.981086
1337.000000	-0.004166	-2.738338	36.002604	40.663372	1.000000	378.624000	5.432000	378.860000	5.362000	13.163600	27.098000	0.000000	47.968350
1338.000000	1.448217	1692.522496	36.016215	40.622207	1.000000	377.822000	14.940000	378.074000	14.816000	13.164000	26.756000	13.000000	47.982570
1339.000000	4.583107	2457.202372	36.034688	40.571966	1.000000	376.854000	25.972000	377.072000	25.758000	13.164000	26.832000	18.000000	47.998274
1340.000000	7.644097	2473.165661	36.045059	40.538580	1.000000	375.844000	36.880000	376.070000	36.582000	13.164000	26.826000	22.500000	48.006125
1341.000000	10.828578	2464.232276	36.054457	40.503574	1.000000	375.796000	35.878000	376.028000	35.578000	13.164600	26.550000	22.500000	47.991906
1342.000000	13.147981	1479.916928	36.067097	40.459815	1.000000	376.060000	31.640000	376.274000	31.372000	13.165600	25.532000	15.500000	48.067454
1343.000000	14.798725	1316.650433	36.084273	40.394988	1.000000	375.700000	35.300000	375.952000	34.998000	13.166000	24.870000	16.500000	48.117529
1344.000000	16.554484	1472.173232	36.094968	40.346692	1.000000	375.508000	36.884000	375.764000	36.590000	13.166000	24.876000	18.000000	48.169087
1345.000000	18.130032	1262.163385	36.109228	40.302933	1.000000	375.588000	35.292000	375.804000	35.004000	13.165400	24.890000	16.000000	48.231891
1346.000000	19.470917	1106.597370	36.119598	40.259823	1.000000	375.842000	31.514000	376.066000	31.232000	13.165600	24.870000	15.000000	48.246109
1347.000000	20.512963	869.960579	36.138395	40.182679	1.000000	376.164000	27.134000	376.416000	26.894000	13.166000	24.942000	13.000000	48.282392
1348.000000	21.308678	697.025413	36.151034	40.132438	1.000000	376.604000	21.646000	376.864000	21.444000	13.166000	25.074000	12.500000	48.277510
1349.000000	21.843801	451.455364	36.161081	40.088680	1.000000	376.952000	17.652000	377.194000	17.492000	13.166000	24.986000	9.000000	48.302544
1350.000000	22.187368	366.101776	36.167887	40.046218	1.000000	377.124000	15.764000	377.372000	15.612000	13.166600	24.896000	8.500000	48.326094
1351.000000	22.456388	305.212183	36.181498	39.976205	1.000000	377.888000	6.664000	378.136000	6.558000	13.166400	24.726000	4.500000	48.314845
1352.000000	22.119627	-216.370204	36.191221	39.909109	1.000000	378.684000	-2.170000	378.918000	-2.228000	13.166000	24.832000	0.500000	48.289811
1353.000000	21.449346	-388.213918	36.196406	39.865674	1.000000	378.780000	-2.444000	379.028000	-2.482000	13.166000	25.004000	0.000000	48.292779
1354.000000	20.877598	-252.775390	36.202888	39.825806	1.000000	378.664000	-0.480000	378.918000	-0.492000	13.166000	25.092000	1.500000	48.261378
1355.000000	20.410865	-222.336850	36.206453	39.774916	1.000000	378.646000	0.000000	378.914000	0.000000	13.166000	25.134000	1.500000	48.256496
1356.000000	19.945753	-215.159580	36.212610	39.732130	1.000000	378.662000	0.000000	378.936000	0.000000	13.166000	25.142000	1.500000	48.226579
1357.000000	19.483882	-269.097192	36.212610	39.701986	1.000000	378.886000	-2.232000	379.156000	-2.250000	13.165400	26.014000	0.000000	48.201543
1358.000000	18.669044	-608.244770	36.215203	39.681241	1.000000	379.024000	-3.366000	379.282000	-3.402000	13.165000	26.356000	0.000000	48.176506
1359.000000	17.876570	-578.433162	36.215527	39.660497	1.000000	379.098000	-3.844000	379.348000	-3.896000	13.165600	26.104000	0.000000	48.160805
1360.000000	16.780071	-913.408401	36.213583	39.635538	1.000000	379.558000	-8.868000	379.814000	-8.880000	13.165400	26.016000	0.000000	48.130885
1361.000000	15.340654	-972.923524	36.210342	39.629379	1.000000	379.872000	-11.972000	380.108000	-11.946000	13.165000	26.042000	0.000000	48.118152
1362.000000	13.791360	-1132.833941	36.210666	39.621600	1.000000	380.278000	-16.100000	380.492000	-16.046000	13.165000	26.028000	0.000000	48.123034
1363.000000	11.397733	-1929.770362	36.209045	39.620304	1.000000	380.554000	-18.574000	380.770000	-18.498000	13.165000	26.084000	0.000000	48.105848
1364.000000	8.044386	-2627.241455	36.203536	39.622248	1.000000	379.808000	-8.948000	380.058000	-8.922000	13.163800	27.346000	0.000000	48.123034
1365.000000	5.062481	-1876.005678	36.198999	39.629704	1.000000	378.958000	1.314000	379.222000	1.250000	13.161800	29.380000	0.000000	48.103934
1366.000000	2.555411	-2120.378833	36.200295	39.638779	1.000000	378.658000	4.280000	378.912000	4.180000	13.161000	29.444000	0.000000	48.135338
1367.000000	0.104090	-1451.227989	36.198027	39.646235	1.000000	378.700000	3.588000	378.938000	3.488000	13.162200	28.334000	0.000000	48.176077
1368.000000	0.045100	-2.738338	36.195110	39.666007	1.000000	378.742000	2.992000	378.996000	2.880000	13.163000	28.146000	0.000000	48.210449
1369.000000	-0.003193	-3.170704	36.196082	39.682214	1.000000	378.736000	3.024000	378.988000	2.916000	13.161800	28.488000	0.000000	48.198145
1370.000000	-0.004166	-3.019376	36.196082	39.693882	1.000000	378.746000	3.028000	378.974000	2.916000	13.161600	28.656000	0.000000	48.201114
1371.000000	-0.002869	-2.954521	36.192517	39.704255	1.000000	378.750000	2.900000	378.982000	2.804000	13.163200	28.374000	0.000000	48.186897
1372.000000	-0.004166	-2.824811	36.194462	39.716572	1.000000	378.756000	2.808000	379.008000	2.728000	13.164000	27.930000	0.000000	48.194319
1373.000000	-0.004166	-2.824811	36.197703	39.726944	1.000000	378.760000	2.830000	379.014000	2.738000	13.163400	27.896000	0.000000	48.188381
1374.000000	-0.004166	-2.803193	36.198999	39.734724	0.000000	378.760000	2.850000	379.010000	2.750000	13.163000	27.980000	0.000000	48.142760
