Time[sec]	Test_Cell_Temp[C]	Test_Cell_RH[%]	Phase_#	Dyno_Speed[mph]	Dyno_Tractive_Effort[N]	Accelerator_Pedal_Position[%]	HV_Battery_Current[A]	HV_Battery_Voltage[V]	HV_Battery_SOC[%]
-10.000	-7.243	9.432	0.000	0.000	-11.324	0.000	-0.028	-0.067	0.000
-9.900	-7.243	9.433	0.000	0.001	-11.357	0.000	-0.032	-0.067	0.000
-9.800	-7.242	9.432	0.000	0.000	-11.629	0.000	-0.029	-0.067	0.000
-9.700	-7.242	9.431	0.000	0.000	-11.193	0.000	-0.025	-0.067	0.000
-9.600	-7.244	9.432	0.000	0.001	-11.799	0.000	-0.028	-0.067	0.000
-9.500	-7.243	9.432	0.000	0.001	-11.476	0.000	-0.057	-0.067	0.000
-9.400	-7.244	9.432	0.000	0.002	-11.500	0.000	-0.055	-0.067	0.000
-9.300	-7.243	9.432	0.000	0.002	-11.377	0.000	-0.048	-0.071	0.000
-9.200	-7.243	9.431	0.000	0.001	-11.298	0.000	-0.032	-0.067	0.000
-9.100	-7.242	9.430	0.000	0.000	-11.551	0.000	-0.026	-0.078	0.000
-9.000	-7.242	9.431	0.000	0.002	-11.579	0.000	-0.041	-0.067	0.000
-8.900	-7.241	9.429	0.000	0.000	-11.513	0.000	-0.032	-0.067	0.000
-8.800	-7.242	9.431	0.000	0.000	-11.639	0.000	-0.026	-0.067	0.000
-8.700	-7.241	9.429	0.000	0.001	-11.456	0.000	-0.041	-0.067	0.000
-8.600	-7.242	9.429	0.000	0.000	-11.501	0.000	-0.042	-0.067	0.000
-8.500	-7.242	9.428	0.000	0.000	-11.441	0.000	-0.054	-0.070	0.000
-8.400	-7.242	9.430	0.000	0.000	-11.370	0.000	-0.033	-0.067	0.000
-8.300	-7.242	9.431	0.000	0.000	-11.363	0.000	-0.026	-0.063	0.000
-8.200	-7.241	9.430	0.000	0.001	-11.560	0.000	-0.041	-0.067	0.000
-8.100	-7.242	9.430	0.000	0.000	-11.384	0.000	-0.042	-0.074	0.000
-8.000	-7.242	9.430	0.000	0.001	-11.232	0.000	-0.035	-0.067	0.000
-7.900	-7.242	9.430	0.000	0.000	-11.348	0.000	-0.041	-0.063	0.000
-7.800	-7.242	9.429	0.000	0.000	-11.559	0.000	-0.026	-0.067	0.000
-7.700	-7.241	9.430	0.000	0.001	-11.319	0.000	-0.035	-0.067	0.000
-7.600	-7.239	9.427	0.000	0.000	-11.420	0.000	-0.029	-0.070	0.000
-7.500	-7.242	9.428	0.000	0.000	-11.435	0.000	-0.035	-0.067	0.000
-7.400	-7.242	9.428	0.000	0.001	-11.435	0.000	-0.035	-0.067	0.000
-7.300	-7.241	9.427	0.000	0.001	-11.435	0.000	-0.019	-0.067	0.000
-7.200	-7.242	9.427	0.000	0.001	-11.369	0.000	-0.025	-0.067	0.000
-7.100	-7.242	9.427	0.000	0.001	-11.168	0.000	-0.025	-0.074	0.000
-7.000	-7.242	9.427	0.000	0.000	-11.212	0.000	-0.022	-0.063	0.000
-6.900	-7.241	9.425	0.000	0.001	-11.348	0.000	-0.035	-0.067	0.000
-6.800	-7.242	9.428	0.000	0.001	-11.363	0.000	-0.032	-0.067	0.000
-6.700	-7.242	9.427	0.000	0.001	-11.233	0.000	-0.026	-0.055	0.000
-6.600	-7.242	9.427	0.000	0.000	-11.610	0.000	-0.035	-0.070	0.000
-6.500	-7.242	9.426	0.000	0.001	-11.324	0.000	-0.038	-0.067	0.000
-6.400	-7.242	9.428	0.000	0.002	-11.421	0.000	-0.035	-0.067	0.000
-6.300	-7.242	9.429	0.000	0.000	-11.566	0.000	-0.032	-0.067	0.000
-6.200	-7.242	9.427	0.000	0.000	-11.383	0.000	-0.032	-0.067	0.000
-6.100	-7.242	9.427	0.000	0.000	-11.234	0.000	-0.035	-0.067	0.000
-6.000	-7.242	9.427	0.000	0.001	-11.477	0.000	-0.029	-0.067	0.000
-5.900	-7.242	9.427	0.000	0.000	-11.572	0.000	-0.025	-0.067	0.000
-5.800	-7.242	9.427	0.000	0.000	-11.188	0.000	-0.032	-0.070	0.000
-5.700	-7.242	9.425	0.000	0.001	-11.598	0.000	-0.035	-0.071	0.000
-5.600	-7.242	9.429	0.000	0.001	-11.460	0.000	-0.023	-0.071	0.000
-5.500	-7.242	9.427	0.000	0.001	-11.500	0.000	-0.025	-0.067	0.000
-5.400	-7.241	9.428	0.000	0.001	-11.443	0.000	-0.025	-0.067	0.000
-5.300	-7.242	9.427	0.000	0.000	-11.305	0.000	-0.047	-0.067	0.000
-5.200	-7.242	9.428	0.000	0.000	-11.548	0.000	-0.054	-0.067	0.000
-5.100	-7.241	9.425	0.000	0.001	-11.450	0.000	-0.045	-0.067	0.000
-5.000	-7.242	9.428	0.000	0.000	-11.499	0.000	-0.039	-0.063	0.000
-4.900	-7.242	9.427	0.000	0.001	-11.571	0.000	-0.029	-0.063	9.396
-4.800	-7.242	9.428	0.000	0.000	-11.258	0.000	-0.047	-0.067	9.500
-4.700	-7.242	9.428	0.000	0.000	-11.667	0.000	-0.045	-0.070	9.500
-4.600	-7.241	9.427	0.000	0.000	-11.145	0.000	-0.051	-0.071	9.500
-4.500	-7.242	9.428	0.000	0.000	-11.524	0.000	2.474	125.904	9.500
-4.400	-7.242	9.427	0.000	0.001	-11.515	0.000	0.192	317.334	9.500
-4.300	-7.242	9.427	0.000	0.001	-11.377	0.000	0.026	328.388	9.500
-4.200	-7.241	9.425	0.000	0.001	-11.299	0.000	-0.008	329.720	9.500
-4.100	-7.242	9.425	0.000	0.001	-11.419	0.000	-0.012	329.783	9.500
-4.000	-7.242	9.425	0.000	0.001	-11.499	0.000	0.519	329.709	9.500
-3.900	-7.242	9.426	0.000	0.001	-11.507	0.000	1.322	329.650	9.500
-3.800	-7.242	9.424	0.000	0.000	-11.379	0.000	0.739	329.711	9.500
-3.700	-7.242	9.425	0.000	0.001	-11.689	0.000	0.650	329.732	9.500
-3.600	-7.242	9.425	0.000	0.001	-11.276	0.000	0.747	329.707	9.500
-3.500	-7.242	9.425	0.000	0.001	-11.675	0.000	0.949	329.699	9.500
-3.400	-7.242	9.427	0.000	0.000	-11.595	0.000	0.892	329.694	9.500
-3.300	-7.241	9.425	0.000	0.000	-11.383	0.000	0.865	329.702	9.500
-3.200	-7.242	9.425	0.000	0.000	-11.559	0.000	0.848	329.702	9.500
-3.100	-7.240	9.425	0.000	0.001	-11.191	0.000	0.832	329.695	9.500
-3.000	-7.240	9.425	0.000	0.001	-11.276	0.000	0.819	329.702	9.500
-2.900	-7.242	9.425	0.000	0.001	-11.549	0.000	0.809	329.698	9.500
-2.800	-7.242	9.425	0.000	0.001	-11.383	0.000	0.828	329.706	9.500
-2.700	-7.242	9.425	0.000	0.000	-11.299	0.000	0.831	329.702	9.500
-2.600	-7.242	9.425	0.000	0.000	-11.355	0.000	0.816	329.702	9.500
-2.500	-7.241	9.425	0.000	0.001	-11.427	0.000	0.800	329.702	9.500
-2.400	-7.242	9.425	0.000	0.001	-11.565	0.000	0.812	329.698	9.500
-2.300	-7.240	9.426	0.000	0.001	-11.514	0.000	0.853	329.698	9.500
-2.200	-7.242	9.425	0.000	0.000	-11.442	0.000	0.913	329.706	9.500
-2.100	-7.242	9.425	0.000	0.000	-11.435	0.000	1.188	329.672	9.500
-2.000	-7.242	9.425	0.000	0.000	-11.564	0.000	1.156	329.675	9.500
-1.900	-7.242	9.425	0.000	0.000	-11.450	0.000	1.377	329.649	9.500
-1.800	-7.242	9.426	0.000	0.000	-11.630	0.000	1.833	329.596	9.500
-1.700	-7.242	9.425	0.000	0.001	-11.586	0.000	2.585	329.553	9.500
-1.600	-7.242	9.426	0.000	0.000	-11.579	0.000	2.710	329.536	9.500
-1.500	-7.242	9.425	0.000	0.000	-11.384	0.000	2.419	329.539	9.500
-1.400	-7.242	9.425	0.000	0.001	-11.558	0.000	2.434	329.546	9.500
-1.300	-7.242	9.426	0.000	0.001	-11.257	0.000	2.442	329.547	9.500
-1.200	-7.242	9.425	0.000	0.001	-11.348	0.000	2.426	329.539	9.500
-1.100	-7.242	9.425	0.000	0.002	-11.168	0.000	2.432	329.539	9.500
-1.000	-7.244	9.425	0.000	0.001	-11.596	0.000	2.423	329.547	9.500
-0.900	-7.243	9.425	0.000	0.001	-11.402	0.000	2.429	329.547	9.500
-0.800	-7.243	9.426	0.000	0.001	-11.363	0.000	2.448	329.543	9.500
-0.700	-7.242	9.425	0.000	0.000	-11.553	0.000	2.476	329.550	9.500
-0.600	-7.242	9.425	0.000	0.002	-11.387	0.000	2.502	329.540	9.500
-0.500	-7.242	9.425	0.000	0.000	-11.427	0.000	2.525	329.539	9.500
-0.400	-7.244	9.425	0.000	0.001	-11.435	0.000	2.520	329.528	9.500
-0.300	-7.243	9.424	0.000	0.000	-11.823	0.000	2.526	329.520	9.500
-0.200	-7.245	9.425	0.000	0.000	-11.163	0.000	2.535	329.520	9.500
-0.100	-7.243	9.425	0.000	0.001	-11.394	0.000	2.548	329.520	9.500
-0.000	-7.244	9.425	0.000	0.001	-11.751	0.000	2.549	329.527	9.500
0.100	-7.243	9.425	0.000	0.000	-11.476	0.000	2.561	329.509	9.500
0.200	-7.245	9.425	0.000	0.000	-11.499	0.000	2.571	329.515	9.500
0.300	-7.243	9.425	0.000	0.001	-11.572	0.000	2.596	329.508	9.500
0.400	-7.242	9.425	0.000	0.000	-11.450	0.000	2.585	329.512	9.500
0.500	-7.245	9.425	0.000	0.001	-11.435	0.000	2.128	329.542	9.500
0.600	-7.247	9.425	0.000	0.000	-11.306	0.000	1.146	329.644	9.500
0.700	-7.245	9.423	0.000	0.001	-11.418	0.000	1.160	329.651	9.500
0.800	-7.246	9.424	0.000	0.000	-11.499	0.000	1.193	329.648	9.500
0.900	-7.245	9.426	0.000	0.002	-11.443	0.000	1.229	329.644	9.500
1.000	-7.245	9.425	0.893	0.000	-11.435	0.000	1.204	329.655	9.500
1.100	-7.246	9.427	1.000	0.000	-11.435	0.000	1.222	329.648	9.500
1.200	-7.245	9.425	1.000	0.001	-11.308	0.000	1.244	329.644	9.500
1.300	-7.246	9.425	1.000	0.000	-11.484	0.000	1.252	329.648	9.500
1.400	-7.245	9.425	1.000	0.000	-11.571	0.000	1.283	329.651	9.500
1.500	-7.243	9.425	1.000	0.000	-11.515	0.000	1.338	329.652	9.500
1.600	-7.245	9.425	1.000	0.000	-11.443	0.000	1.358	329.622	9.500
1.700	-7.243	9.425	1.000	0.001	-11.562	0.000	1.359	329.621	9.500
1.800	-7.244	9.425	1.000	0.000	-11.516	0.000	1.368	329.617	9.500
1.900	-7.244	9.425	1.000	0.001	-11.635	0.000	1.384	329.620	9.500
2.000	-7.243	9.425	1.000	0.002	-11.525	0.000	1.404	329.617	9.500
2.100	-7.243	9.426	1.000	0.001	-11.379	0.000	1.398	329.617	9.500
2.200	-7.242	9.425	1.000	0.001	-11.490	0.000	1.413	329.632	9.500
2.300	-7.242	9.425	1.000	0.001	-11.765	0.000	1.426	329.621	9.500
2.400	-7.242	9.425	1.000	0.000	-11.599	0.000	1.446	329.632	9.500
2.500	-7.244	9.426	1.000	0.002	-11.450	0.000	1.452	329.628	9.500
2.600	-7.243	9.425	1.000	0.000	-11.369	0.000	1.471	329.617	9.500
2.700	-7.244	9.425	1.000	0.000	-11.429	0.000	1.491	329.620	9.500
2.800	-7.243	9.425	1.000	0.000	-11.567	0.000	1.485	329.621	9.500
2.900	-7.244	9.426	1.000	0.001	-11.513	0.000	1.507	329.632	9.500
3.000	-7.243	9.428	1.000	0.000	-11.441	0.000	1.511	329.628	9.500
3.100	-7.242	9.426	1.000	0.001	-11.501	0.000	1.511	329.636	9.500
3.200	-7.244	9.428	1.000	0.000	-11.507	0.000	1.517	329.621	9.500
3.300	-7.244	9.428	1.000	0.000	-11.574	0.000	1.517	329.609	9.500
3.400	-7.242	9.428	1.000	0.001	-11.511	0.000	1.551	329.616	9.500
3.500	-7.243	9.428	1.000	0.000	-11.302	0.000	1.546	329.632	9.500
3.600	-7.244	9.428	1.000	0.000	-11.627	0.000	1.543	329.610	9.500
3.700	-7.242	9.428	1.000	0.000	-11.447	0.000	1.574	329.598	9.500
3.800	-7.244	9.428	1.000	0.000	-11.435	0.000	1.610	329.608	9.500
3.900	-7.242	9.429	1.000	0.000	-11.160	0.000	1.611	329.620	9.500
4.000	-7.243	9.430	1.000	0.000	-11.489	0.000	1.626	329.609	9.500
4.100	-7.242	9.431	1.000	0.000	-11.507	0.000	1.702	329.609	9.500
4.200	-7.245	9.428	1.000	0.040	-11.230	0.000	2.184	329.564	9.500
4.300	-7.243	9.430	1.000	0.073	-11.288	0.000	2.775	329.503	9.500
4.400	-7.243	9.430	1.000	0.234	32.926	0.000	3.184	329.459	9.500
4.500	-7.243	9.429	1.000	0.335	237.027	0.000	3.233	329.458	9.500
4.600	-7.242	9.432	1.000	0.433	302.343	0.000	2.936	329.480	9.500
4.700	-7.243	9.431	1.000	0.482	552.333	0.000	3.147	329.473	9.500
4.800	-7.242	9.430	1.000	0.580	631.604	0.000	3.172	329.451	9.500
4.900	-7.242	9.429	1.000	0.641	593.551	0.000	3.295	329.453	9.500
5.000	-7.242	9.428	1.000	0.726	589.051	0.000	3.497	329.424	9.500
5.100	-7.242	9.430	1.000	0.822	600.307	0.000	3.570	329.430	9.500
5.200	-7.242	9.430	1.000	0.922	590.375	0.000	3.719	329.408	9.500
5.300	-7.243	9.429	1.000	1.021	604.534	0.000	3.806	329.400	9.500
5.400	-7.241	9.432	1.000	1.119	636.216	0.000	3.942	329.373	9.500
5.500	-7.242	9.432	1.000	1.215	658.523	3.864	4.106	329.368	9.500
5.600	-7.242	9.432	1.000	1.347	723.260	4.714	4.619	329.313	9.500
5.700	-7.242	9.432	1.000	1.502	964.103	5.866	5.632	329.228	9.500
5.800	-7.242	9.432	1.000	1.692	1142.846	5.906	6.302	329.154	9.500
5.900	-7.242	9.431	1.000	1.841	1163.819	6.666	6.702	329.114	9.500
6.000	-7.242	9.430	1.000	2.032	1211.643	6.693	7.297	329.049	9.500
6.100	-7.242	9.433	1.000	2.228	1277.132	7.852	7.837	329.016	9.500
6.200	-7.242	9.432	1.000	2.425	1306.599	9.820	8.028	328.985	9.500
6.300	-7.242	9.435	1.000	2.618	1344.306	9.843	8.557	328.925	9.500
6.400	-7.241	9.433	1.000	2.815	1444.847	9.843	9.721	328.815	9.500
6.500	-7.242	9.435	1.000	3.005	1488.538	9.843	10.464	328.754	9.500
6.600	-7.242	9.434	1.000	3.202	1468.491	11.009	10.971	328.688	9.500
6.700	-7.242	9.434	1.000	3.436	1452.320	12.960	11.484	328.641	9.500
6.800	-7.242	9.435	1.000	3.642	1510.426	12.992	12.477	328.557	9.500
6.900	-7.242	9.435	1.000	3.880	1611.784	12.992	12.985	328.487	9.500
7.000	-7.242	9.435	1.000	4.081	1627.365	12.992	13.578	328.428	9.500
7.100	-7.243	9.437	1.000	4.276	1554.670	12.992	14.102	328.388	9.500
7.200	-7.242	9.436	1.000	4.520	1482.880	12.992	14.428	328.338	9.500
7.300	-7.244	9.437	1.000	4.719	1506.669	13.770	14.716	328.299	9.500
7.400	-7.244	9.438	1.000	4.917	1523.660	15.725	15.104	328.264	9.500
7.500	-7.243	9.436	1.000	5.156	1612.005	15.748	16.496	328.121	9.500
7.600	-7.242	9.438	1.000	5.399	1699.552	15.748	18.185	327.974	9.500
7.700	-7.242	9.436	1.000	5.640	1703.808	15.748	18.786	327.907	9.500
7.800	-7.242	9.438	1.000	5.875	1690.847	15.748	19.223	327.842	9.500
7.900	-7.244	9.438	1.000	6.081	1665.035	15.748	19.709	327.787	9.500
8.000	-7.244	9.439	1.000	6.274	1602.650	15.748	19.951	327.766	9.500
8.100	-7.245	9.438	1.000	6.508	1550.658	15.748	20.154	327.718	9.500
8.200	-7.244	9.438	1.000	6.714	1557.121	16.922	20.528	327.689	9.500
8.300	-7.244	9.438	1.000	6.950	1562.157	17.712	20.839	327.649	9.500
8.400	-7.244	9.438	1.000	7.158	1614.410	17.717	22.183	327.531	9.500
8.500	-7.244	9.439	1.000	7.398	1668.525	17.717	23.312	327.419	9.500
8.600	-7.243	9.439	1.000	7.593	1672.685	17.717	23.997	327.346	9.500
8.700	-7.242	9.441	1.000	7.837	1601.835	17.717	24.545	327.282	9.500
8.800	-7.243	9.438	1.000	8.037	1613.078	17.717	24.960	327.221	9.500
8.900	-7.243	9.439	1.000	8.278	1600.919	17.717	25.275	327.177	9.500
9.000	-7.242	9.441	1.000	8.474	1569.103	17.717	25.662	327.138	9.500
9.100	-7.242	9.440	1.000	8.669	1564.184	17.717	25.987	327.104	9.500
9.200	-7.242	9.439	1.000	8.901	1539.562	17.717	26.451	327.051	9.500
9.300	-7.242	9.441	1.000	9.105	1502.783	17.717	26.596	327.033	9.500
9.400	-7.245	9.442	1.000	9.302	1512.765	17.717	26.853	326.992	9.500
9.500	-7.244	9.442	1.000	9.498	1496.901	17.717	27.231	326.949	9.500
9.600	-7.244	9.441	1.000	9.694	1487.212	17.717	27.506	326.909	9.500
9.700	-7.244	9.443	1.000	9.890	1452.072	17.717	27.814	326.878	9.500
9.800	-7.244	9.441	1.000	10.085	1440.680	17.717	27.933	326.844	9.500
9.900	-7.244	9.443	1.000	10.281	1415.805	17.717	28.204	326.806	9.500
10.000	-7.243	9.442	1.000	10.474	1415.417	17.717	28.576	326.752	9.500
10.100	-7.244	9.444	1.000	10.671	1402.196	17.717	28.712	326.730	9.500
10.200	-7.242	9.444	1.000	10.817	1347.019	17.717	28.831	326.711	9.500
10.300	-7.242	9.445	1.000	11.008	1360.041	17.717	29.112	326.673	9.500
10.400	-7.242	9.445	1.000	11.204	1356.193	17.717	29.252	326.652	9.500
10.500	-7.243	9.445	1.000	11.366	1357.820	17.717	29.481	326.631	9.500
10.600	-7.242	9.445	1.000	11.549	1294.763	17.717	29.445	326.614	9.500
10.700	-7.242	9.445	1.000	11.710	1291.030	17.717	29.897	326.565	9.500
10.800	-7.242	9.445	1.000	11.885	1312.017	17.717	30.391	326.511	9.500
10.900	-7.241	9.445	1.000	12.083	1305.442	18.889	30.633	326.464	9.500
11.000	-7.242	9.448	1.000	12.231	1272.364	18.898	30.954	326.423	9.500
11.100	-7.242	9.448	1.000	12.422	1319.484	18.898	32.313	326.302	9.500
11.200	-7.242	9.449	1.000	12.630	1374.302	18.898	33.379	326.197	9.500
11.300	-7.239	9.450	1.000	12.824	1346.545	19.666	34.018	326.120	9.500
11.400	-7.242	9.448	1.000	13.019	1329.411	20.855	35.026	326.016	9.500
11.500	-7.241	9.449	1.000	13.179	1405.916	20.866	36.484	325.886	9.500
11.600	-7.242	9.448	1.000	13.360	1422.811	20.866	37.323	325.777	9.500
11.700	-7.241	9.450	1.000	13.555	1391.616	20.866	37.983	325.705	9.500
11.800	-7.242	9.450	1.000	13.751	1406.733	20.866	38.448	325.635	9.500
11.900	-7.242	9.450	1.000	13.945	1421.513	20.866	38.848	325.585	9.500
12.000	-7.243	9.449	1.000	14.142	1382.317	22.018	39.308	325.529	9.500
12.100	-7.244	9.452	1.000	14.338	1403.074	22.047	40.752	325.378	9.500
12.200	-7.242	9.451	1.000	14.535	1494.353	22.047	42.359	325.216	9.500
12.300	-7.243	9.451	1.000	14.726	1470.689	22.047	42.731	325.163	9.500
12.400	-7.244	9.452	1.000	14.927	1452.203	22.047	42.943	325.117	9.500
12.500	-7.244	9.452	1.000	15.118	1477.856	22.047	43.342	325.070	9.500
12.600	-7.242	9.454	1.000	15.311	1434.484	22.047	43.536	325.035	9.500
12.700	-7.242	9.454	1.000	15.506	1404.458	22.047	43.700	324.990	9.500
12.800	-7.241	9.454	1.000	15.663	1427.593	22.047	43.962	324.953	9.500
12.900	-7.242	9.456	1.000	15.850	1396.122	22.047	44.085	324.929	9.500
13.000	-7.239	9.456	1.000	16.046	1409.325	22.047	44.624	324.866	9.500
13.100	-7.242	9.456	1.000	16.241	1398.739	22.047	44.439	324.869	9.500
13.200	-7.242	9.454	1.000	16.436	1335.167	22.047	44.676	324.837	9.500
13.300	-7.241	9.454	1.000	16.584	1353.901	22.047	45.218	324.758	9.500
13.400	-7.242	9.457	1.000	16.774	1363.774	22.047	45.214	324.733	9.500
13.500	-7.242	9.458	1.000	16.971	1337.538	22.047	45.244	324.713	9.500
13.600	-7.241	9.458	1.000	17.121	1346.308	22.047	45.454	324.686	9.500
13.700	-7.242	9.458	1.000	17.317	1300.381	22.047	44.264	324.776	9.500
13.800	-7.242	9.456	1.000	17.465	1296.413	22.047	44.626	324.737	9.500
13.900	-7.241	9.457	1.000	17.656	1319.429	22.047	44.743	324.692	9.500
14.000	-7.242	9.458	1.000	17.807	1283.140	22.047	44.498	324.709	9.500
14.100	-7.242	9.461	1.000	17.961	1290.315	22.047	45.114	324.659	9.500
14.200	-7.242	9.459	1.000	18.146	1255.411	22.047	45.050	324.631	9.500
14.300	-7.242	9.459	1.000	18.300	1238.109	22.047	45.158	324.604	9.500
14.400	-7.239	9.460	1.000	18.451	1256.444	22.047	45.081	324.591	9.500
14.500	-7.242	9.460	1.000	18.629	1233.320	22.047	45.213	324.576	9.500
14.600	-7.240	9.458	1.000	18.775	1231.134	22.047	45.389	324.545	9.500
14.700	-7.240	9.459	1.000	18.933	1189.184	22.047	45.652	324.511	9.500
14.800	-7.242	9.458	1.000	19.080	1192.128	22.047	45.658	324.502	9.500
14.900	-7.241	9.458	1.000	19.264	1195.756	22.047	45.636	324.485	9.500
15.000	-7.242	9.461	1.000	19.414	1203.720	22.047	45.799	324.451	9.500
15.100	-7.242	9.462	1.000	19.558	1177.549	22.047	45.913	324.414	9.500
15.200	-7.242	9.461	1.000	19.716	1157.862	22.047	46.290	324.371	9.500
15.300	-7.242	9.461	1.000	19.863	1181.424	22.047	46.278	324.344	9.500
15.400	-7.243	9.461	1.000	20.007	1161.786	22.047	46.293	324.342	9.500
15.500	-7.242	9.461	1.000	20.151	1151.362	22.047	46.704	324.297	9.500
15.600	-7.245	9.461	1.000	20.337	1119.565	24.783	46.485	324.299	9.500
15.700	-7.243	9.461	1.000	20.486	1150.660	26.750	46.858	324.229	9.500
15.800	-7.245	9.464	1.000	20.711	1301.253	27.941	51.500	323.812	9.500
15.900	-7.243	9.464	1.000	20.925	1533.876	28.721	59.030	323.132	9.500
16.000	-7.242	9.465	1.000	21.154	1577.365	29.912	63.025	322.728	9.500
16.100	-7.244	9.465	1.000	21.363	1669.363	31.073	66.499	322.355	9.500
16.200	-7.243	9.467	1.000	21.606	1734.569	31.884	69.093	322.085	9.500
16.300	-7.243	9.465	1.000	21.847	1799.659	33.053	72.499	321.711	9.500
16.400	-7.243	9.468	1.000	22.130	1832.847	33.852	75.545	321.403	9.500
16.500	-7.242	9.466	1.000	22.374	1903.855	33.858	77.969	321.128	9.500
16.600	-7.243	9.467	1.000	22.623	1947.006	35.031	80.014	320.895	9.500
16.700	-7.244	9.468	1.000	22.912	1970.934	35.821	81.005	320.766	9.500
16.800	-7.242	9.467	1.000	23.202	1982.196	36.999	83.918	320.461	9.500
16.900	-7.244	9.469	1.000	23.449	2080.663	37.008	87.522	320.081	9.500
17.000	-7.242	9.469	1.000	23.741	2134.546	37.008	90.070	319.806	9.500
17.100	-7.242	9.469	1.000	24.036	2120.560	37.008	92.016	319.565	9.500
17.200	-7.244	9.468	1.000	24.326	2100.301	37.008	92.996	319.412	9.500
17.300	-7.244	9.469	1.000	24.571	2127.220	37.008	93.528	319.294	9.500
17.400	-7.242	9.470	1.000	24.858	2108.767	37.008	93.457	319.259	9.500
17.500	-7.242	9.470	1.000	25.121	2051.106	37.008	94.187	319.136	9.500
17.600	-7.243	9.471	1.000	25.401	2071.033	37.008	95.377	319.000	9.500
17.700	-7.242	9.471	1.000	25.656	2090.456	37.008	96.156	318.901	9.500
17.800	-7.242	9.471	1.000	25.935	2050.568	37.008	96.135	318.849	9.500
17.900	-7.244	9.471	1.000	26.181	2009.511	37.008	96.387	318.787	9.500
18.000	-7.242	9.471	1.000	26.435	2047.793	37.008	97.316	318.663	9.500
18.100	-7.243	9.470	1.000	26.719	2018.665	37.008	96.920	318.634	9.500
18.200	-7.243	9.470	1.000	26.969	1942.720	37.008	96.816	318.618	9.500
18.300	-7.245	9.471	1.000	27.214	1967.898	37.008	97.111	318.551	9.500
18.400	-7.246	9.472	1.000	27.465	1969.794	37.008	97.337	318.481	9.500
18.500	-7.245	9.472	1.000	27.708	1902.709	37.008	97.309	318.429	9.500
18.600	-7.246	9.472	1.000	27.949	1906.394	37.008	96.958	318.412	9.500
18.700	-7.244	9.473	1.000	28.185	1901.097	37.008	96.673	318.400	9.500
18.800	-7.246	9.472	1.000	28.432	1840.796	37.008	96.961	318.352	9.500
18.900	-7.246	9.473	1.000	28.675	1855.749	37.008	97.608	318.265	9.500
19.000	-7.248	9.473	1.000	28.879	1860.368	37.008	97.625	318.228	9.500
19.100	-7.249	9.475	1.000	29.122	1789.181	37.008	97.182	318.221	9.500
19.200	-7.246	9.477	1.000	29.366	1802.345	37.008	97.860	318.133	9.500
19.300	-7.249	9.475	1.000	29.598	1834.237	37.008	98.640	318.019	9.500
19.400	-7.246	9.476	1.000	29.810	1764.326	37.008	98.400	318.004	9.500
19.500	-7.249	9.475	1.000	30.052	1783.921	37.008	98.423	317.974	9.500
19.600	-7.249	9.476	1.000	30.284	1785.774	37.008	99.142	317.873	9.500
19.700	-7.249	9.474	1.000	30.490	1740.095	37.008	99.558	317.802	9.500
19.800	-7.249	9.476	1.000	30.687	1753.689	37.008	98.599	317.827	9.500
19.900	-7.250	9.476	1.000	30.929	1740.411	37.008	99.242	317.759	9.500
20.000	-7.251	9.474	1.000	31.125	1684.127	37.008	99.166	317.737	9.500
20.100	-7.252	9.474	1.000	31.366	1719.631	37.008	99.558	317.686	9.500
20.200	-7.252	9.475	1.000	31.563	1697.261	37.008	99.914	317.599	9.500
20.300	-7.252	9.474	1.000	31.758	1659.192	35.834	99.848	317.559	9.500
20.400	-7.253	9.473	1.000	31.953	1669.139	35.042	97.962	317.664	9.500
20.500	-7.252	9.475	1.000	32.149	1556.231	35.039	94.381	317.936	9.500
20.600	-7.251	9.474	1.000	32.342	1496.925	35.039	91.888	318.160	9.500
20.700	-7.252	9.477	1.000	32.538	1493.634	35.039	91.369	318.217	9.500
20.800	-7.253	9.477	1.000	32.688	1437.640	35.818	91.567	318.181	9.500
20.900	-7.254	9.477	1.000	32.881	1486.907	35.827	92.300	318.120	9.500
21.000	-7.255	9.477	1.000	33.083	1500.568	35.827	94.417	317.914	9.500
21.100	-7.255	9.477	1.000	33.271	1480.643	35.827	94.763	317.822	9.500
21.200	-7.254	9.477	1.000	33.467	1532.991	35.827	95.706	317.721	9.500
21.300	-7.255	9.477	1.000	33.627	1479.806	35.827	96.207	317.647	9.500
21.400	-7.255	9.477	1.000	33.819	1506.013	35.827	96.685	317.550	9.500
21.500	-7.257	9.477	1.000	34.008	1503.576	35.827	96.483	317.535	9.500
21.600	-7.256	9.478	1.000	34.200	1444.332	35.827	96.047	317.541	9.500
21.700	-7.256	9.477	1.000	34.396	1491.591	35.827	96.947	317.425	9.500
21.800	-7.257	9.479	1.000	34.544	1454.582	35.827	96.938	317.377	9.500
21.900	-7.258	9.478	1.000	34.735	1455.134	35.827	97.245	317.349	9.500
22.000	-7.257	9.478	1.000	34.933	1443.379	35.827	96.638	317.369	9.002
22.100	-7.257	9.480	1.000	35.082	1406.479	35.827	96.776	317.338	9.000
22.200	-7.257	9.479	1.000	35.278	1465.741	35.827	97.362	317.241	9.000
22.300	-7.261	9.479	1.000	35.422	1404.079	35.827	96.849	317.250	9.000
22.400	-7.262	9.478	1.000	35.615	1414.489	37.004	97.071	317.188	9.000
22.500	-7.261	9.478	1.000	35.773	1421.851	37.008	97.615	317.129	9.000
22.600	-7.262	9.479	1.000	35.956	1406.322	37.008	98.974	316.966	9.000
22.700	-7.261	9.480	1.000	36.152	1452.632	37.008	99.080	316.889	9.000
22.800	-7.261	9.478	1.000	36.302	1399.524	37.008	100.070	316.790	9.000
22.900	-7.262	9.478	1.000	36.493	1437.545	37.008	99.629	316.792	9.000
23.000	-7.262	9.479	1.000	36.653	1404.604	37.008	99.653	316.766	9.000
23.100	-7.262	9.478	1.000	36.835	1419.529	37.792	100.794	316.636	9.000
23.200	-7.266	9.480	1.000	36.993	1421.826	37.795	101.144	316.578	9.000
23.300	-7.268	9.479	1.000	37.174	1380.939	37.795	101.401	316.503	9.000
23.400	-7.266	9.479	1.000	37.370	1453.623	37.795	101.921	316.411	9.000
23.500	-7.267	9.477	1.000	37.526	1416.519	37.795	103.518	316.245	9.000
23.600	-7.266	9.479	1.000	37.721	1446.200	38.972	103.835	316.168	9.000
23.700	-7.266	9.477	1.000	37.868	1411.736	38.976	104.436	316.069	9.000
23.800	-7.268	9.479	1.000	38.059	1444.750	39.759	105.804	315.893	9.000
23.900	-7.268	9.480	1.000	38.256	1468.301	39.764	107.527	315.691	9.000
24.000	-7.268	9.480	1.000	38.448	1479.870	40.935	110.673	315.424	9.000
24.100	-7.270	9.482	1.000	38.610	1547.541	40.945	111.827	315.228	9.000
24.200	-7.268	9.483	1.000	38.837	1526.257	40.945	114.487	314.953	9.000
24.300	-7.271	9.480	1.000	39.029	1604.786	42.122	116.691	314.677	9.000
24.400	-7.270	9.480	1.000	39.224	1569.847	42.126	117.719	314.529	9.000
24.500	-7.269	9.483	1.000	39.386	1594.322	42.126	117.671	314.468	9.000
24.600	-7.271	9.480	1.000	39.574	1561.280	42.126	118.471	314.334	9.000
24.700	-7.273	9.481	1.000	39.771	1601.106	42.909	120.505	314.120	9.000
24.800	-7.273	9.480	1.000	39.967	1593.408	42.913	121.155	314.004	9.000
24.900	-7.275	9.481	1.000	40.160	1592.489	42.913	121.921	313.862	9.000
25.000	-7.275	9.482	1.000	40.353	1603.201	42.913	122.844	313.708	9.000
25.100	-7.275	9.482	1.000	40.551	1594.641	42.913	122.560	313.692	9.000
25.200	-7.275	9.481	1.000	40.747	1603.203	42.913	122.904	313.590	9.000
25.300	-7.274	9.480	1.000	40.944	1568.040	42.913	123.051	313.535	9.000
25.400	-7.275	9.480	1.000	41.137	1578.980	42.913	122.262	313.563	9.000
25.500	-7.277	9.480	1.000	41.332	1546.713	42.913	123.250	313.418	9.000
25.600	-7.279	9.481	1.000	41.524	1576.070	42.913	123.385	313.386	9.000
25.700	-7.278	9.480	1.000	41.677	1532.093	42.913	124.002	313.270	9.000
25.800	-7.279	9.481	1.000	41.864	1580.558	44.090	125.124	313.097	9.000
25.900	-7.280	9.482	1.000	42.095	1560.964	44.879	127.353	312.831	9.000
26.000	-7.279	9.480	1.000	42.298	1647.292	44.882	131.605	312.436	9.000
26.100	-7.279	9.481	1.000	42.504	1633.433	46.027	132.345	312.281	9.000
26.200	-7.280	9.480	1.000	42.697	1695.161	46.063	135.110	311.988	9.000
26.300	-7.281	9.480	1.000	42.893	1696.626	46.063	137.809	311.672	9.000
26.400	-7.281	9.481	1.000	43.122	1730.574	46.846	140.031	311.384	9.000
26.500	-7.282	9.483	1.000	43.330	1717.363	46.850	141.050	311.225	9.000
26.600	-7.283	9.482	1.000	43.525	1754.249	48.027	142.633	310.969	9.000
26.700	-7.282	9.481	1.000	43.761	1729.261	49.962	144.225	310.764	9.000
26.800	-7.281	9.480	1.000	44.007	1854.199	51.156	153.402	309.858	9.000
26.900	-7.281	9.482	1.000	44.251	1935.979	51.181	160.908	309.086	9.000
27.000	-7.285	9.480	1.000	44.496	2003.850	51.965	163.999	308.638	9.000
27.100	-7.286	9.477	1.000	44.739	1975.006	53.146	166.023	308.303	9.000
27.200	-7.286	9.477	1.000	44.981	2037.492	53.934	167.904	308.045	9.000
27.300	-7.287	9.478	1.000	45.261	2044.165	55.114	171.158	307.645	9.000
27.400	-7.288	9.480	1.000	45.511	2084.617	55.901	173.584	307.277	9.000
27.500	-7.286	9.479	1.000	45.802	2122.952	57.833	179.968	306.644	9.000
27.600	-7.287	9.479	1.000	46.053	2207.815	59.048	187.088	305.855	9.000
27.700	-7.288	9.478	1.000	46.344	2262.367	59.055	193.331	305.164	9.000
27.800	-7.288	9.479	1.000	46.625	2287.470	59.055	196.398	304.671	9.000
27.900	-7.287	9.478	1.000	46.920	2285.988	59.055	196.408	304.476	9.000
28.000	-7.288	9.477	1.000	47.173	2246.612	59.055	196.885	304.289	9.000
28.100	-7.287	9.479	1.000	47.460	2271.664	59.055	198.075	304.085	9.000
28.200	-7.285	9.480	1.000	47.751	2243.052	59.055	197.459	304.013	9.000
28.300	-7.287	9.479	1.000	47.997	2239.766	53.992	197.905	303.879	9.000
28.400	-7.287	9.480	1.000	48.207	2158.907	51.988	193.801	304.007	9.000
28.500	-7.288	9.479	1.000	48.406	1996.473	50.060	179.159	305.063	9.000
28.600	-7.288	9.479	1.000	48.596	1793.877	50.000	166.026	306.370	9.000
28.700	-7.288	9.478	1.000	48.791	1710.416	50.000	158.440	307.185	9.000
28.800	-7.287	9.477	1.000	48.988	1681.067	46.880	157.716	307.417	9.000
28.900	-7.290	9.477	1.000	49.184	1653.346	46.850	154.151	307.599	9.000
29.000	-7.290	9.477	1.000	49.336	1566.875	46.850	146.668	308.339	9.000
29.100	-7.289	9.477	1.000	49.489	1494.048	46.850	146.135	308.500	9.000
29.200	-7.289	9.477	1.000	49.670	1514.009	46.850	145.330	308.565	9.000
29.300	-7.288	9.477	1.000	49.865	1493.968	48.020	145.877	308.553	9.000
29.400	-7.288	9.477	1.000	50.023	1501.552	48.789	147.127	308.407	9.000
29.500	-7.288	9.477	1.000	50.218	1552.188	48.819	149.715	308.074	9.000
29.600	-7.287	9.477	1.000	50.413	1602.066	48.819	155.369	307.544	9.000
29.700	-7.287	9.477	1.000	50.609	1614.377	48.819	156.512	307.367	9.000
29.800	-7.285	9.477	1.000	50.767	1596.830	48.819	157.606	307.171	9.000
29.900	-7.286	9.477	1.000	50.953	1608.487	48.819	158.091	307.074	9.000
30.000	-7.286	9.476	1.000	51.146	1591.005	48.819	157.062	307.088	9.000
30.100	-7.288	9.477	1.000	51.305	1576.882	48.819	157.425	306.983	9.000
30.200	-7.287	9.477	1.000	51.486	1589.792	48.819	157.888	306.870	9.000
30.300	-7.282	9.477	1.000	51.684	1559.403	48.819	157.073	306.908	9.000
30.400	-7.281	9.476	1.000	51.835	1564.336	49.986	157.168	306.845	9.000
30.500	-7.281	9.475	1.000	52.026	1574.948	51.950	158.547	306.688	9.000
30.600	-7.281	9.475	1.000	52.218	1573.208	53.136	160.727	306.428	9.000
30.700	-7.280	9.474	1.000	52.417	1666.543	55.100	168.086	305.665	9.000
30.800	-7.281	9.475	1.000	52.655	1733.957	57.009	175.677	304.848	9.000
30.900	-7.280	9.474	1.000	52.855	1811.584	57.866	184.164	303.995	9.000
31.000	-7.281	9.474	1.000	53.086	1882.440	57.874	191.001	303.197	9.000
31.100	-7.277	9.473	1.000	53.294	1906.645	57.874	193.884	302.704	9.000
31.200	-7.274	9.472	1.000	53.532	1915.015	59.044	193.427	302.555	9.000
31.300	-7.271	9.474	1.000	53.733	1895.489	59.055	195.714	302.273	9.000
31.400	-7.271	9.471	1.000	53.974	1904.815	59.055	196.471	302.073	9.000
31.500	-7.269	9.472	1.000	54.172	1946.109	59.055	201.404	301.557	9.000
31.600	-7.270	9.473	1.000	54.415	1932.795	59.836	201.528	301.355	9.000
31.700	-7.269	9.473	1.000	54.647	1924.104	59.843	202.125	301.153	9.000
31.800	-7.268	9.473	1.000	54.856	1933.551	59.843	202.742	300.971	9.000
31.900	-7.263	9.471	1.000	55.098	1914.757	59.843	203.336	300.794	9.000
32.000	-7.254	9.472	1.000	55.296	1919.737	59.843	204.557	300.569	8.505
32.100	-7.253	9.472	1.000	55.526	1931.060	59.843	204.064	300.463	8.500
32.200	-7.252	9.473	1.000	55.733	1900.367	59.843	204.525	300.329	8.500
32.300	-7.252	9.472	1.000	55.964	1901.451	59.843	205.316	300.138	8.500
32.400	-7.252	9.473	1.000	56.172	1906.510	59.843	204.178	300.154	8.500
32.500	-7.252	9.473	1.000	56.364	1914.349	59.843	206.483	299.903	8.500
32.600	-7.252	9.472	1.000	56.606	1886.719	59.843	203.791	299.951	8.500
32.700	-7.245	9.472	1.000	56.806	1887.091	59.843	206.900	299.632	8.500
32.800	-7.233	9.471	1.000	57.001	1871.276	59.843	206.451	299.551	8.500
32.900	-7.230	9.471	1.000	57.240	1854.330	59.843	204.905	299.548	8.500
33.000	-7.227	9.471	1.000	57.439	1847.795	59.843	206.014	299.394	8.500
33.100	-7.226	9.471	1.000	57.636	1848.379	59.843	207.420	299.157	8.500
33.200	-7.227	9.471	1.000	57.834	1856.206	59.843	205.289	299.202	8.500
33.300	-7.227	9.472	1.000	58.027	1826.378	59.843	204.649	299.195	8.500
33.400	-7.226	9.471	1.000	58.231	1824.206	59.843	207.255	298.858	8.500
33.500	-7.210	9.471	1.000	58.462	1832.727	59.843	208.420	298.743	8.500
33.600	-7.198	9.471	1.000	58.662	1802.411	59.843	206.787	298.755	8.500
33.700	-7.195	9.471	1.000	58.855	1770.059	59.843	204.771	298.843	8.500
33.800	-7.194	9.471	1.000	59.051	1792.890	59.843	206.270	298.625	8.500
33.900	-7.192	9.471	1.000	59.245	1779.320	59.843	205.611	298.557	8.500
34.000	-7.191	9.471	1.000	59.441	1774.144	59.843	207.992	298.308	8.500
34.100	-7.192	9.471	1.000	59.640	1782.558	59.843	206.896	298.232	8.500
34.200	-7.191	9.471	1.000	59.797	1735.543	59.843	203.022	298.482	8.500
34.300	-7.184	9.471	1.000	60.026	1729.829	59.843	206.448	298.140	8.500
34.400	-7.162	9.471	1.000	60.182	1756.662	59.843	207.118	297.972	8.500
34.500	-7.152	9.469	1.000	60.371	1741.543	59.843	206.866	297.924	8.500
34.600	-7.152	9.469	1.000	60.565	1719.448	59.843	205.493	297.970	8.500
34.700	-7.151	9.470	1.000	60.762	1712.130	59.843	206.281	297.831	8.500
34.800	-7.151	9.469	1.000	60.955	1717.824	59.843	206.770	297.691	8.500
34.900	-7.152	9.467	1.000	61.106	1712.130	59.843	206.387	297.618	8.500
35.000	-7.151	9.468	1.000	61.299	1688.231	59.843	205.222	297.596	8.500
35.100	-7.130	9.465	1.000	61.493	1684.204	59.843	205.261	297.508	8.500
35.200	-7.109	9.466	1.000	61.655	1682.137	59.843	205.940	297.381	8.500
35.300	-7.101	9.466	1.000	61.834	1677.329	61.011	205.156	297.363	8.500
35.400	-7.098	9.465	1.000	61.990	1662.050	62.192	206.006	297.233	8.500
35.500	-7.096	9.465	1.000	62.212	1674.332	62.984	208.798	296.875	8.500
35.600	-7.096	9.465	1.000	62.383	1739.545	64.934	213.210	296.395	8.500
35.700	-7.096	9.466	1.000	62.616	1808.689	66.129	223.254	295.449	8.500
35.800	-7.096	9.465	1.000	62.815	1848.281	66.142	229.568	294.597	8.500
35.900	-7.088	9.464	1.000	63.010	1845.108	66.142	229.348	294.391	8.500
36.000	-7.056	9.464	1.000	63.206	1819.307	66.142	227.666	294.364	8.500
36.100	-7.039	9.463	1.000	63.404	1816.811	66.919	229.283	294.103	8.500
36.200	-7.034	9.462	1.000	63.596	1811.375	66.929	227.432	294.065	8.500
36.300	-7.033	9.464	1.000	63.790	1794.530	66.929	228.358	293.897	8.500
36.400	-7.032	9.464	1.000	63.987	1788.233	66.929	227.401	293.843	8.500
36.500	-7.032	9.462	1.000	64.151	1770.588	66.929	227.392	293.734	8.500
36.600	-7.031	9.463	1.000	64.334	1767.326	66.929	226.388	293.705	8.500
36.700	-7.010	9.461	1.000	64.529	1757.372	66.929	226.703	293.606	8.500
36.800	-6.973	9.459	1.000	64.722	1756.981	64.980	227.709	293.446	8.500
36.900	-6.960	9.460	1.000	64.882	1761.052	43.753	229.089	293.168	8.500
37.000	-6.957	9.459	1.000	64.909	1558.272	35.863	196.009	294.935	8.500
37.100	-6.957	9.458	1.000	64.909	945.915	28.794	126.385	301.330	8.500
37.200	-6.956	9.458	1.000	64.866	516.306	28.740	88.267	305.985	8.500
37.300	-6.955	9.458	1.000	64.862	351.966	28.740	73.883	308.645	8.500
37.400	-6.957	9.457	1.000	64.860	323.870	28.740	72.816	309.554	8.500
37.500	-6.949	9.457	1.000	64.861	342.578	28.740	73.005	309.992	8.500
37.600	-6.903	9.456	1.000	64.861	346.112	28.740	73.816	310.203	8.500
37.700	-6.879	9.453	1.000	64.861	329.722	31.853	72.883	310.414	8.500
37.800	-6.873	9.453	1.000	64.861	353.365	35.003	74.148	310.428	8.500
37.900	-6.871	9.454	1.000	64.896	472.153	35.039	85.752	309.559	8.500
38.000	-6.870	9.454	1.000	64.911	564.184	35.039	94.124	308.797	8.500
38.100	-6.870	9.454	1.000	64.954	560.410	35.039	96.336	308.513	8.500
38.200	-6.870	9.454	1.000	64.960	558.071	35.039	95.770	308.480	8.500
38.300	-6.845	9.451	1.000	65.002	566.526	35.039	96.219	308.424	8.500
38.400	-6.794	9.446	1.000	65.009	557.023	35.039	95.277	308.529	8.500
38.500	-6.777	9.445	1.000	65.051	566.208	35.039	97.406	308.373	8.500
38.600	-6.773	9.444	1.000	65.057	570.047	35.039	95.807	308.459	8.500
38.700	-6.770	9.445	1.000	65.091	555.804	35.039	96.255	308.500	8.500
38.800	-6.770	9.442	1.000	65.106	560.304	35.039	96.436	308.478	8.500
38.900	-6.770	9.443	1.000	65.140	557.092	35.039	95.472	308.545	8.500
39.000	-6.770	9.444	1.000	65.153	557.802	35.039	96.685	308.468	8.500
39.100	-6.765	9.443	1.000	65.189	577.586	35.039	97.451	308.381	8.500
39.200	-6.707	9.438	1.000	65.204	559.082	35.039	95.865	308.490	8.500
39.300	-6.673	9.433	1.000	65.238	556.544	35.039	95.382	308.540	8.500
39.400	-6.660	9.432	1.000	65.250	552.941	35.039	95.542	308.525	8.500
39.500	-6.659	9.432	1.000	65.284	570.561	33.875	97.252	308.365	8.500
39.600	-6.659	9.432	1.000	65.297	552.339	33.858	93.369	308.694	8.500
39.700	-6.659	9.432	1.000	65.300	520.937	33.858	93.061	308.807	8.500
39.800	-6.657	9.432	1.000	65.343	536.333	33.858	93.308	308.758	8.500
39.900	-6.636	9.430	1.000	65.349	532.674	33.858	94.059	308.720	8.500
40.000	-6.570	9.423	1.000	65.392	519.310	33.858	91.849	308.918	8.500
40.100	-6.544	9.420	1.000	65.396	525.103	33.858	92.537	308.872	8.500
40.200	-6.538	9.419	1.000	65.431	521.188	33.858	92.163	308.912	8.500
40.300	-6.535	9.419	1.000	65.444	520.300	33.858	92.557	308.895	8.500
40.400	-6.535	9.419	1.000	65.446	525.244	33.858	92.920	308.874	8.500
40.500	-6.533	9.419	1.000	65.481	528.639	33.858	91.931	308.901	8.500
40.600	-6.533	9.419	1.000	65.494	517.647	33.858	93.053	308.846	8.500
40.700	-6.527	9.417	1.000	65.496	530.060	33.858	92.448	308.853	8.500
40.800	-6.461	9.408	1.000	65.530	527.071	33.858	93.017	308.817	8.500
40.900	-6.415	9.403	1.000	65.543	520.645	33.858	92.284	308.875	8.500
41.000	-6.403	9.401	1.000	65.579	529.092	33.858	93.041	308.804	8.004
41.100	-6.397	9.402	1.000	65.593	521.575	33.858	93.828	308.749	8.000
41.200	-6.398	9.402	1.000	65.593	530.697	33.858	92.634	308.801	8.000
41.300	-6.397	9.400	1.000	65.639	533.161	33.858	93.616	308.726	8.000
41.400	-6.398	9.399	1.000	65.641	524.840	33.858	91.886	308.829	8.000
41.500	-6.376	9.395	1.000	65.679	512.152	33.858	92.719	308.788	8.000
41.600	-6.293	9.385	1.000	65.690	532.261	33.858	92.855	308.743	8.000
41.700	-6.265	9.380	1.000	65.691	530.065	33.077	92.905	308.725	8.000
41.800	-6.254	9.380	1.000	65.693	513.012	33.071	91.169	308.869	8.000
41.900	-6.251	9.380	1.000	65.738	497.591	33.071	90.188	308.942	8.000
42.000	-6.250	9.380	1.000	65.739	475.893	33.071	89.079	309.064	8.000
42.100	-6.251	9.380	1.000	65.740	489.453	33.071	88.028	309.129	8.000
42.200	-6.251	9.379	1.000	65.740	479.221	31.909	87.393	309.218	8.000
42.300	-6.246	9.378	1.000	65.788	480.903	31.890	87.482	309.205	8.000
42.400	-6.171	9.365	1.000	65.789	463.472	28.765	86.672	309.287	8.000
42.500	-6.117	9.354	1.000	65.790	448.024	27.959	83.661	309.511	8.000
42.600	-6.101	9.351	1.000	65.744	370.710	25.999	73.892	310.364	8.000
42.700	-6.096	9.351	1.000	65.738	293.885	22.859	69.676	310.947	8.000
42.800	-6.095	9.352	1.000	65.696	257.569	22.835	61.488	311.628	8.000
42.900	-6.093	9.352	1.000	65.643	171.813	22.835	56.913	312.305	8.000
43.000	-6.095	9.353	1.000	65.640	169.189	22.835	56.475	312.480	8.000
43.100	-6.077	9.349	1.000	65.595	168.711	22.835	55.249	312.685	8.000
43.200	-5.990	9.334	1.000	65.591	156.306	22.835	55.271	312.771	8.000
43.300	-5.951	9.326	1.000	65.544	161.986	22.835	55.292	312.814	8.000
43.400	-5.940	9.322	1.000	65.542	162.558	22.835	55.677	312.811	8.000
43.500	-5.935	9.322	1.000	65.498	168.900	22.835	55.717	312.827	8.000
43.600	-5.933	9.321	1.000	65.449	166.839	22.835	55.482	312.878	8.000
43.700	-5.935	9.321	1.000	65.444	163.343	22.835	55.002	312.915	8.000
43.800	-5.934	9.320	1.000	65.400	162.316	22.835	55.382	312.922	8.000
43.900	-5.932	9.321	1.000	65.351	165.198	22.835	55.012	312.940	8.000
44.000	-5.858	9.303	1.000	65.349	157.470	22.835	54.197	313.029	8.000
44.100	-5.790	9.291	1.000	65.304	162.159	22.835	55.871	312.945	8.000
44.200	-5.774	9.286	1.000	65.298	164.297	22.835	54.765	313.019	8.000
44.300	-5.766	9.286	1.000	65.253	169.227	22.835	55.732	312.959	8.000
44.400	-5.765	9.285	1.000	65.206	176.617	22.835	55.475	312.957	8.000
44.500	-5.765	9.284	1.000	65.203	169.938	22.835	55.517	312.944	8.000
44.600	-5.765	9.285	1.000	65.202	189.649	22.835	57.540	312.829	8.000
44.700	-5.753	9.282	1.000	65.156	199.748	24.007	57.985	312.764	8.000
44.800	-5.661	9.258	1.000	65.111	197.021	24.016	58.544	312.715	8.000
44.900	-5.613	9.246	1.000	65.105	195.354	24.016	57.362	312.779	8.000
45.000	-5.600	9.243	1.000	65.059	186.430	24.016	58.076	312.764	8.000
45.100	-5.594	9.244	1.000	65.057	196.285	24.016	58.248	312.760	8.000
45.200	-5.594	9.244	1.000	65.009	197.022	24.016	57.853	312.767	8.000
45.300	-5.594	9.244	1.000	65.007	191.935	24.016	58.571	312.747	8.000
45.400	-5.593	9.242	1.000	64.961	200.644	24.016	58.271	312.744	8.000
45.500	-5.593	9.241	1.000	64.958	209.568	24.016	59.201	312.667	8.000
45.600	-5.528	9.222	1.000	64.958	216.150	24.792	59.056	312.649	8.000
45.700	-5.451	9.204	1.000	64.915	221.243	25.975	60.942	312.515	8.000
45.800	-5.431	9.197	1.000	64.909	248.611	25.984	63.412	312.277	8.000
45.900	-5.425	9.198	1.000	64.911	267.611	25.984	65.027	312.087	8.000
46.000	-5.422	9.196	1.000	64.864	265.173	25.984	64.473	312.103	8.000
46.100	-5.422	9.195	1.000	64.861	269.643	26.766	64.847	312.064	8.000
46.200	-5.421	9.195	1.000	64.862	280.486	26.772	66.821	311.877	8.000
46.300	-5.416	9.192	1.000	64.862	286.385	27.943	65.825	311.902	8.000
46.400	-5.322	9.165	1.000	64.861	307.399	27.953	68.741	311.664	8.000
46.500	-5.271	9.153	1.000	64.862	327.967	27.953	70.490	311.464	8.000
46.600	-5.255	9.147	1.000	64.819	331.696	27.953	71.527	311.329	8.000
46.700	-5.249	9.144	1.000	64.814	335.516	27.953	71.496	311.299	8.000
46.800	-5.247	9.146	1.000	64.813	335.687	27.953	72.284	311.206	8.000
46.900	-5.247	9.143	1.000	64.815	344.656	27.953	72.253	311.178	8.000
47.000	-5.247	9.144	1.000	64.813	337.134	27.953	72.472	311.145	8.000
47.100	-5.246	9.144	1.000	64.813	340.555	27.953	73.347	311.097	8.000
47.200	-5.194	9.125	1.000	64.813	343.618	27.953	72.100	311.122	8.000
47.300	-5.110	9.100	1.000	64.812	345.079	27.953	72.753	311.079	8.000
47.400	-5.086	9.095	1.000	64.815	332.700	27.953	70.823	311.204	8.000
47.500	-5.077	9.091	1.000	64.813	340.402	27.953	72.483	311.100	8.000
47.600	-5.074	9.091	1.000	64.812	350.944	27.953	72.431	311.086	8.000
47.700	-5.073	9.088	1.000	64.767	348.462	28.734	72.926	310.998	8.000
47.800	-5.074	9.089	1.000	64.765	343.368	28.740	73.323	310.945	8.000
47.900	-5.070	9.088	1.000	64.765	355.443	28.740	73.236	310.936	8.000
48.000	-4.991	9.056	1.000	64.765	362.108	28.740	73.670	310.877	8.000
48.100	-4.932	9.038	1.000	64.765	354.142	28.740	74.171	310.835	8.000
48.200	-4.913	9.031	1.000	64.765	362.154	28.740	74.900	310.793	8.000
48.300	-4.908	9.029	1.000	64.764	356.615	28.740	73.837	310.849	8.000
48.400	-4.907	9.026	1.000	64.765	353.817	28.740	73.688	310.841	8.000
48.500	-4.906	9.026	1.000	64.765	356.823	28.740	73.612	310.807	8.000
48.600	-4.905	9.028	1.000	64.765	349.226	28.740	73.697	310.821	8.000
48.700	-4.905	9.027	1.000	64.765	357.516	28.740	74.072	310.796	8.000
48.800	-4.866	9.010	1.000	64.765	361.209	28.740	73.832	310.763	8.000
48.900	-4.781	8.979	1.000	64.765	353.968	28.740	74.084	310.734	8.000
49.000	-4.752	8.968	1.000	64.764	354.119	28.740	73.623	310.737	8.000
49.100	-4.745	8.965	1.000	64.764	357.013	28.740	74.407	310.707	8.000
49.200	-4.743	8.964	1.000	64.765	364.203	28.740	73.226	310.747	8.000
49.300	-4.741	8.965	1.000	64.764	355.350	28.740	73.917	310.698	8.000
49.400	-4.742	8.962	1.000	64.765	351.145	28.740	73.647	310.718	8.000
49.500	-4.738	8.959	1.000	64.721	361.547	28.740	74.616	310.630	8.000
49.600	-4.672	8.931	1.000	64.736	361.471	22.159	73.832	310.674	8.000
49.700	-4.607	8.906	1.000	64.671	330.491	0.173	70.231	310.851	8.000
49.800	-4.591	8.899	1.000	64.576	120.159	0.000	40.076	312.985	8.000
49.900	-4.585	8.894	1.000	64.475	-238.232	0.000	16.459	315.756	8.000
50.000	-4.582	8.894	1.000	64.427	-264.686	0.000	15.220	316.449	8.000
50.100	-4.580	8.895	1.000	64.378	-127.599	0.000	24.974	315.825	8.000
50.200	-4.580	8.894	1.000	64.332	-28.785	0.000	36.436	314.892	8.000
50.300	-4.580	8.894	1.000	64.325	54.572	0.000	41.536	314.416	8.000
50.400	-4.553	8.881	1.000	64.280	130.429	0.000	48.739	313.703	8.000
50.500	-4.469	8.843	1.000	64.276	196.427	0.000	55.676	313.010	8.000
50.600	-4.439	8.829	1.000	64.275	239.970	0.000	60.721	312.440	8.000
50.700	-4.430	8.824	1.000	64.277	277.255	0.000	65.008	311.999	8.000
50.800	-4.428	8.822	1.000	64.275	310.242	0.000	67.923	311.585	8.000
50.900	-4.426	8.822	1.000	64.278	344.841	0.000	71.261	311.254	8.000
51.000	-4.426	8.822	1.000	64.277	350.620	0.000	72.646	311.031	8.000
51.100	-4.426	8.822	1.000	64.276	354.630	0.000	73.277	310.924	8.000
51.200	-4.369	8.793	1.000	64.276	363.969	0.000	73.104	310.860	8.000
51.300	-4.302	8.764	1.000	64.277	367.568	0.000	74.489	310.744	8.000
51.400	-4.280	8.754	1.000	64.278	367.297	0.000	74.403	310.702	8.000
51.500	-4.274	8.751	1.000	64.275	378.246	0.000	75.681	310.566	8.000
51.600	-4.274	8.751	1.000	64.274	387.773	0.000	75.768	310.518	8.000
51.700	-4.274	8.750	1.000	64.277	399.733	0.000	77.071	310.356	8.000
51.800	-4.272	8.750	1.000	64.277	415.485	0.000	78.971	310.153	8.000
51.900	-4.272	8.751	1.000	64.277	427.378	0.000	81.246	309.880	8.000
52.000	-4.252	8.737	1.000	64.313	453.357	0.000	83.514	309.659	8.000
52.100	-4.171	8.699	1.000	64.324	475.446	0.000	85.491	309.390	8.000
52.200	-4.139	8.681	1.000	64.362	496.400	0.000	87.611	309.149	8.000
52.300	-4.127	8.678	1.000	64.374	508.799	0.000	89.266	308.910	8.000
52.400	-4.125	8.677	1.000	64.375	514.315	0.000	89.583	308.851	8.000
52.500	-4.126	8.675	1.000	64.394	509.551	0.000	88.848	308.865	8.000
52.600	-4.125	8.676	1.000	64.422	500.050	0.000	87.927	308.891	8.000
52.700	-4.125	8.674	1.000	64.423	485.044	0.000	85.977	309.008	8.000
52.800	-4.084	8.648	1.000	64.422	472.122	0.000	84.771	309.130	8.000
52.900	-4.016	8.614	1.000	64.467	462.468	0.000	83.744	309.215	8.000
53.000	-3.996	8.604	1.000	64.472	450.661	0.000	83.203	309.268	8.000
53.100	-3.987	8.600	1.000	64.471	444.517	0.000	82.881	309.288	8.000
53.200	-3.987	8.599	1.000	64.472	451.146	0.000	82.852	309.280	8.000
53.300	-3.987	8.598	1.000	64.470	454.569	0.000	83.390	309.216	8.000
53.400	-3.988	8.599	1.000	64.517	454.326	0.000	83.488	309.167	8.000
53.500	-3.987	8.599	1.000	64.520	465.120	0.000	85.116	309.042	8.000
53.600	-3.975	8.588	1.000	64.521	466.310	0.000	84.685	309.016	8.000
53.700	-3.903	8.546	1.000	64.520	471.364	0.000	84.838	308.969	8.000
53.800	-3.871	8.531	1.000	64.566	466.342	0.000	84.158	308.980	8.000
53.900	-3.860	8.524	1.000	64.570	460.541	0.000	84.769	308.952	8.000
54.000	-3.858	8.523	1.000	64.570	456.536	0.000	83.186	309.053	8.000
54.100	-3.856	8.522	1.000	64.568	465.001	0.000	84.587	308.915	8.000
54.200	-3.855	8.520	1.000	64.605	455.697	0.000	84.034	308.958	8.000
54.300	-3.854	8.521	1.000	64.617	447.221	0.000	82.733	309.027	8.000
54.400	-3.826	8.500	1.000	64.619	441.293	0.000	81.919	309.078	8.000
54.500	-3.764	8.463	1.000	64.616	438.937	0.000	81.165	309.144	8.000
54.600	-3.742	8.450	1.000	64.617	432.675	0.000	81.881	309.112	8.000
54.700	-3.736	8.446	1.000	64.637	435.552	0.000	82.300	309.077	8.000
54.800	-3.733	8.444	1.000	64.666	450.003	0.000	83.146	308.946	8.000
54.900	-3.734	8.444	1.000	64.666	459.715	0.000	83.671	308.852	8.000
55.000	-3.733	8.445	1.000	64.666	455.264	0.000	83.488	308.844	8.000
55.100	-3.733	8.445	1.000	64.665	446.028	0.000	82.882	308.884	8.000
55.200	-3.725	8.438	1.000	64.703	444.396	0.000	83.645	308.820	8.000
55.300	-3.663	8.398	1.000	64.716	449.149	0.000	82.688	308.882	8.000
55.400	-3.630	8.377	1.000	64.716	441.074	0.000	82.002	308.904	8.000
55.500	-3.619	8.371	1.000	64.717	436.636	0.000	82.196	308.895	8.000
55.600	-3.617	8.369	1.000	64.716	430.854	0.000	81.534	308.939	8.000
55.700	-3.616	8.367	1.000	64.715	429.954	0.000	81.799	308.918	8.000
55.800	-3.615	8.368	1.000	64.717	443.035	0.000	81.831	308.890	8.000
55.900	-3.615	8.368	1.000	64.761	424.404	0.000	81.089	308.932	8.000
56.000	-3.596	8.352	1.000	64.764	423.442	0.000	80.885	308.933	8.000
56.100	-3.534	8.313	1.000	64.765	424.922	0.000	80.864	308.923	8.000
56.200	-3.513	8.298	1.000	64.763	434.672	0.000	81.876	308.829	8.000
56.300	-3.504	8.294	1.000	64.782	440.207	0.000	82.976	308.698	8.000
56.400	-3.503	8.291	1.000	64.802	451.779	0.000	83.651	308.631	8.000
56.500	-3.502	8.291	1.000	64.812	451.685	0.000	82.920	308.633	8.000
56.600	-3.502	8.291	1.000	64.813	442.462	0.000	82.654	308.641	8.000
56.700	-3.502	8.291	1.000	64.813	438.114	0.000	82.548	308.648	8.000
56.800	-3.498	8.287	1.000	64.813	433.718	0.000	81.883	308.683	8.000
56.900	-3.445	8.250	1.000	64.831	427.454	0.000	81.295	308.742	8.000
57.000	-3.410	8.226	1.000	64.815	429.497	0.000	81.439	308.688	8.000
57.100	-3.398	8.220	1.000	64.858	427.376	0.000	82.350	308.635	8.000
57.200	-3.393	8.218	1.000	64.860	440.961	0.000	82.531	308.554	8.000
57.300	-3.393	8.217	1.000	64.859	452.837	0.000	83.906	308.436	8.000
57.400	-3.393	8.217	1.000	64.859	454.964	0.000	83.949	308.371	8.000
57.500	-3.392	8.217	1.000	64.897	450.177	0.000	83.891	308.359	8.000
57.600	-3.378	8.202	1.000	64.907	441.230	0.000	82.547	308.458	8.000
57.700	-3.321	8.164	1.000	64.910	424.389	0.000	81.159	308.562	8.000
57.800	-3.298	8.149	1.000	64.908	417.660	0.000	80.040	308.647	8.000
57.900	-3.292	8.143	1.000	64.908	410.927	0.000	80.033	308.674	8.000
58.000	-3.291	8.142	1.000	64.909	409.463	0.000	80.037	308.683	7.502
58.100	-3.289	8.142	1.000	64.909	415.473	0.000	80.364	308.644	7.500
58.200	-3.289	8.142	1.000	64.909	416.873	0.000	80.311	308.628	7.500
58.300	-3.291	8.140	1.000	64.912	410.778	0.000	79.675	308.657	7.500
58.400	-3.286	8.139	1.000	64.911	413.796	0.000	80.694	308.576	7.500
58.500	-3.240	8.104	1.000	64.946	418.118	0.000	81.018	308.529	7.500
58.600	-3.205	8.081	1.000	64.959	432.395	0.000	82.319	308.382	7.500
58.700	-3.193	8.073	1.000	64.960	435.070	0.000	82.270	308.363	7.500
58.800	-3.190	8.070	1.000	64.958	435.592	0.000	82.304	308.338	7.500
58.900	-3.188	8.070	1.000	64.959	430.413	0.000	82.263	308.318	7.500
59.000	-3.189	8.070	1.000	64.958	428.107	0.000	81.128	308.368	7.500
59.100	-3.188	8.070	1.000	64.958	421.487	0.000	81.126	308.377	7.500
59.200	-3.180	8.062	1.000	65.003	417.145	0.000	80.554	308.401	7.500
59.300	-3.126	8.025	1.000	64.962	415.804	0.000	80.431	308.418	7.500
59.400	-3.100	8.007	1.000	65.004	413.648	0.000	79.730	308.460	7.500
59.500	-3.094	8.001	1.000	65.008	413.549	0.000	79.855	308.450	7.500
59.600	-3.091	7.999	1.000	65.007	405.012	0.000	79.529	308.465	7.500
59.700	-3.090	7.999	1.000	65.008	409.062	0.000	80.265	308.404	7.500
59.800	-3.089	7.999	1.000	65.009	423.186	0.000	81.070	308.330	7.500
59.900	-3.090	7.998	1.000	65.008	427.832	0.000	81.325	308.266	7.500
60.000	-3.089	7.999	1.000	65.008	423.387	0.000	81.985	308.181	7.500
60.100	-3.049	7.967	1.000	65.010	421.452	0.000	80.864	308.238	7.500
60.200	-3.007	7.943	1.000	65.042	407.066	0.000	79.984	308.297	7.500
60.300	-2.999	7.935	1.000	65.030	411.305	0.000	79.796	308.304	7.500
60.400	-2.996	7.934	1.000	65.055	410.402	0.000	80.393	308.259	7.500
60.500	-2.996	7.931	1.000	65.057	414.752	0.000	80.324	308.240	7.500
60.600	-2.995	7.931	1.000	65.057	418.864	0.000	81.135	308.158	7.500
60.700	-2.994	7.931	1.000	65.057	422.238	0.000	81.304	308.125	7.500
60.800	-2.988	7.926	1.000	65.057	421.193	0.000	80.902	308.128	7.500
60.900	-2.940	7.891	1.000	65.056	413.480	0.000	80.762	308.129	7.500
61.000	-2.914	7.874	1.000	65.056	407.801	0.000	79.132	308.255	7.500
61.100	-2.905	7.868	1.000	65.056	396.212	0.000	78.451	308.310	7.500
61.200	-2.905	7.864	1.000	65.056	389.344	0.000	78.350	308.342	7.500
61.300	-2.903	7.866	1.000	65.056	392.085	0.000	78.672	308.302	7.500
61.400	-2.903	7.867	1.000	65.057	405.158	0.000	79.556	308.216	7.500
61.500	-2.905	7.864	1.000	65.100	413.169	0.000	79.702	308.160	7.500
61.600	-2.900	7.865	1.000	65.095	415.628	0.000	79.937	308.113	7.500
61.700	-2.870	7.839	1.000	65.105	400.876	0.000	79.029	308.167	7.500
61.800	-2.828	7.812	1.000	65.106	393.869	0.000	78.562	308.211	7.500
61.900	-2.816	7.802	1.000	65.106	394.956	0.000	78.353	308.232	7.500
62.000	-2.809	7.798	1.000	65.106	387.272	0.000	77.461	308.290	7.500
62.100	-2.808	7.798	1.000	65.107	386.929	0.000	77.951	308.240	7.500
62.200	-2.809	7.798	1.000	65.105	393.039	0.000	78.185	308.194	7.500
62.300	-2.809	7.799	1.000	65.106	407.104	0.000	79.350	308.103	7.500
62.400	-2.804	7.794	1.000	65.107	412.834	0.000	79.978	308.023	7.500
62.500	-2.759	7.764	1.000	65.106	408.720	0.000	80.515	307.959	7.500
62.600	-2.731	7.743	1.000	65.105	411.304	0.000	79.948	307.951	7.500
62.700	-2.720	7.738	1.000	65.106	406.727	0.000	79.341	307.979	7.500
62.800	-2.719	7.737	1.000	65.106	401.138	0.000	78.698	308.036	7.500
62.900	-2.718	7.734	1.000	65.106	395.764	0.000	78.444	308.061	7.500
63.000	-2.716	7.734	1.000	65.105	386.575	0.000	77.988	308.102	7.500
63.100	-2.717	7.734	1.000	65.105	387.536	0.000	77.524	308.124	7.500
63.200	-2.716	7.733	1.000	65.105	389.738	0.000	77.910	308.091	7.500
63.300	-2.692	7.715	1.000	65.107	388.706	0.000	77.630	308.100	7.500
63.400	-2.650	7.687	1.000	65.107	390.074	0.000	78.308	308.042	7.500
63.500	-2.634	7.678	1.000	65.140	399.519	0.000	78.269	308.012	7.500
63.600	-2.630	7.673	1.000	65.110	400.688	0.000	79.005	307.930	7.500
63.700	-2.630	7.674	1.000	65.141	402.717	0.000	79.052	307.896	7.500
63.800	-2.628	7.672	1.000	65.154	401.168	0.000	79.473	307.833	7.500
63.900	-2.629	7.673	1.000	65.154	409.049	0.000	80.267	307.763	7.500
64.000	-2.626	7.671	1.000	65.153	407.033	0.000	79.516	307.784	7.500
64.100	-2.588	7.642	1.000	65.154	408.092	0.000	79.703	307.740	7.500
64.200	-2.559	7.620	1.000	65.154	402.633	0.000	79.045	307.795	7.500
64.300	-2.547	7.613	1.000	65.154	398.805	0.000	79.375	307.765	7.500
64.400	-2.544	7.610	1.000	65.153	397.755	0.000	78.876	307.792	7.500
64.500	-2.544	7.610	1.000	65.154	388.592	0.000	77.499	307.887	7.500
64.600	-2.543	7.611	1.000	65.154	372.702	0.000	76.686	307.956	7.500
64.700	-2.544	7.610	1.000	65.154	366.458	0.000	76.299	307.992	7.500
64.800	-2.544	7.611	1.000	65.154	374.710	0.000	76.383	308.004	7.500
64.900	-2.527	7.593	1.000	65.154	375.756	0.000	75.992	308.002	7.500
65.000	-2.483	7.565	1.000	65.153	370.867	0.000	76.323	307.981	7.500
65.100	-2.468	7.554	1.000	65.154	380.212	0.000	76.661	307.943	7.500
65.200	-2.466	7.552	1.000	65.154	386.081	0.000	76.779	307.915	7.500
65.300	-2.463	7.552	1.000	65.153	381.939	0.000	77.260	307.842	7.500
65.400	-2.462	7.550	1.000	65.152	388.147	0.000	78.037	307.749	7.500
65.500	-2.463	7.552	1.000	65.152	392.032	0.000	78.134	307.720	7.500
65.600	-2.459	7.549	1.000	65.152	390.263	0.000	77.887	307.725	7.500
65.700	-2.430	7.525	1.000	65.154	399.502	0.000	78.673	307.650	7.500
65.800	-2.397	7.504	1.000	65.154	393.188	0.000	77.884	307.682	7.500
65.900	-2.387	7.497	1.000	65.154	391.211	0.000	78.608	307.607	7.500
66.000	-2.382	7.495	1.000	65.154	390.020	0.000	77.457	307.671	7.500
66.100	-2.381	7.493	1.000	65.154	389.971	0.000	78.350	307.606	7.500
66.200	-2.381	7.493	1.000	65.154	391.919	0.000	78.626	307.559	7.500
66.300	-2.381	7.494	1.000	65.154	386.334	0.000	77.976	307.592	7.500
66.400	-2.381	7.492	1.000	65.154	384.679	0.000	77.990	307.598	7.500
66.500	-2.367	7.481	1.000	65.153	389.268	0.000	77.614	307.598	7.500
66.600	-2.324	7.453	1.000	65.154	389.035	0.000	78.431	307.525	7.500
66.700	-2.305	7.441	1.000	65.153	386.227	0.000	77.608	307.563	7.500
66.800	-2.300	7.438	1.000	65.152	385.288	0.000	77.966	307.516	7.500
66.900	-2.300	7.435	1.000	65.153	386.456	0.000	77.620	307.539	7.500
67.000	-2.300	7.436	1.000	65.155	382.544	0.000	77.417	307.536	7.500
67.100	-2.297	7.435	1.000	65.154	376.393	0.000	77.499	307.542	7.500
67.200	-2.297	7.435	1.000	65.154	383.929	0.000	77.742	307.487	7.500
67.300	-2.269	7.416	1.000	65.171	388.430	0.000	78.039	307.457	7.500
67.400	-2.233	7.395	1.000	65.155	384.617	0.000	76.885	307.523	7.500
67.500	-2.223	7.385	1.000	65.171	373.388	0.000	77.191	307.488	7.500
67.600	-2.219	7.383	1.000	65.154	383.475	0.000	77.978	307.430	7.500
67.700	-2.219	7.382	1.000	65.170	388.375	0.000	76.976	307.470	7.500
67.800	-2.219	7.382	1.000	65.154	384.473	0.000	77.051	307.467	7.500
67.900	-2.219	7.382	1.000	65.154	383.796	0.000	77.605	307.405	7.500
68.000	-2.219	7.381	1.000	65.153	385.335	0.000	77.402	307.382	7.500
68.100	-2.209	7.373	1.000	65.171	374.415	0.000	76.543	307.460	7.500
68.200	-2.169	7.346	1.000	65.156	373.375	0.000	77.100	307.404	7.500
68.300	-2.150	7.334	1.000	65.152	378.196	0.000	76.691	307.409	7.500
68.400	-2.145	7.331	1.000	65.154	363.300	0.000	75.539	307.501	7.500
68.500	-2.144	7.331	1.000	65.154	369.863	0.000	76.450	307.433	7.500
68.600	-2.143	7.329	1.000	65.153	371.123	0.000	76.974	307.378	7.500
68.700	-2.141	7.329	1.000	65.153	364.229	0.000	75.339	307.491	7.500
68.800	-2.141	7.329	1.000	65.152	364.415	0.000	75.924	307.452	7.500
68.900	-2.120	7.311	1.000	65.154	368.409	0.000	76.077	307.426	7.500
69.000	-2.085	7.287	1.000	65.154	369.766	0.000	75.791	307.416	7.500
69.100	-2.072	7.280	1.000	65.154	371.822	0.000	76.526	307.362	7.500
69.200	-2.067	7.276	1.000	65.153	364.386	0.000	76.052	307.367	7.500
69.300	-2.066	7.276	1.000	65.154	368.297	0.000	75.627	307.390	7.500
69.400	-2.066	7.276	1.000	65.154	374.617	0.000	76.186	307.350	7.500
69.500	-2.067	7.277	1.000	65.154	371.404	0.000	76.171	307.306	7.500
69.600	-2.065	7.274	1.000	65.154	363.323	0.000	76.377	307.306	7.500
69.700	-2.060	7.270	1.000	65.153	361.854	0.000	75.732	307.331	7.500
69.800	-2.022	7.242	1.000	65.154	374.107	0.000	77.139	307.211	7.500
69.900	-2.003	7.230	1.000	65.152	388.579	0.000	77.458	307.156	7.500
70.000	-1.998	7.227	1.000	65.154	389.074	0.000	78.787	306.997	7.008
70.100	-1.996	7.226	1.000	65.154	396.199	0.000	79.162	306.942	7.000
70.200	-1.996	7.223	1.000	65.153	395.473	0.000	77.950	306.983	7.000
70.300	-1.997	7.224	1.000	65.154	386.322	0.000	77.595	307.032	7.000
70.400	-1.994	7.224	1.000	65.154	365.758	0.000	75.417	307.193	7.000
70.500	-1.980	7.210	1.000	65.154	355.732	0.000	75.282	307.217	7.000
70.600	-1.947	7.188	1.000	65.153	354.733	0.000	74.130	307.302	7.000
70.700	-1.933	7.178	1.000	65.154	348.864	0.000	74.008	307.325	7.000
70.800	-1.929	7.176	1.000	65.154	364.512	0.000	75.810	307.194	7.000
70.900	-1.928	7.175	1.000	65.152	379.280	0.000	77.133	307.037	7.000
71.000	-1.926	7.176	1.000	65.154	384.935	0.000	77.685	306.923	7.000
71.100	-1.927	7.176	1.000	65.154	384.266	0.000	77.829	306.908	7.000
71.200	-1.927	7.176	1.000	65.153	383.300	0.000	77.391	306.910	7.000
71.300	-1.924	7.172	1.000	65.153	382.429	0.000	77.385	306.914	7.000
71.400	-1.892	7.147	1.000	65.153	379.872	0.000	76.905	306.929	7.000
71.500	-1.871	7.132	1.000	65.152	379.145	0.000	77.260	306.894	7.000
71.600	-1.863	7.127	1.000	65.152	375.847	0.000	76.795	306.909	7.000
71.700	-1.863	7.126	1.000	65.153	368.621	0.000	75.990	306.943	7.000
71.800	-1.863	7.127	1.000	65.153	370.695	0.000	75.925	306.972	7.000
71.900	-1.860	7.127	1.000	65.153	367.260	0.000	75.583	307.003	7.000
72.000	-1.862	7.125	1.000	65.129	367.648	0.000	75.368	306.976	7.000
72.100	-1.851	7.115	1.000	65.150	360.156	0.000	75.720	306.976	7.000
72.200	-1.819	7.093	1.000	65.111	361.296	0.000	74.631	307.046	7.000
72.300	-1.807	7.084	1.000	65.124	361.313	0.000	76.008	306.962	7.000
72.400	-1.802	7.079	1.000	65.108	362.112	0.000	75.128	306.986	7.000
72.500	-1.801	7.079	1.000	65.104	357.845	0.000	74.734	307.002	7.000
72.600	-1.800	7.078	1.000	65.104	354.995	0.000	74.714	307.027	7.000
72.700	-1.801	7.078	1.000	65.104	355.858	0.000	74.503	306.999	7.000
72.800	-1.800	7.079	1.000	65.105	356.920	0.000	74.595	306.978	7.000
72.900	-1.798	7.076	1.000	65.103	357.155	0.000	73.898	307.023	7.000
73.000	-1.771	7.053	1.000	65.103	357.299	0.000	75.548	306.891	7.000
73.100	-1.749	7.039	1.000	65.105	371.646	0.000	76.196	306.790	7.000
73.200	-1.741	7.035	1.000	65.105	388.093	0.000	77.325	306.669	7.000
73.300	-1.740	7.033	1.000	65.104	388.865	0.000	77.709	306.599	7.000
73.400	-1.739	7.033	1.000	65.105	381.220	0.000	77.082	306.635	7.000
73.500	-1.739	7.033	1.000	65.105	378.950	0.000	77.599	306.574	7.000
73.600	-1.739	7.031	1.000	65.105	369.873	0.000	75.564	306.733	7.000
73.700	-1.732	7.025	1.000	65.106	369.944	0.000	76.339	306.655	7.000
73.800	-1.704	7.002	1.000	65.106	369.959	0.000	76.411	306.664	7.000
73.900	-1.690	6.992	1.000	65.106	371.015	0.000	76.527	306.614	7.000
74.000	-1.685	6.988	1.000	65.106	382.483	0.000	76.812	306.562	7.000
74.100	-1.684	6.987	1.000	65.104	381.003	0.000	76.822	306.550	7.000
74.200	-1.685	6.986	1.000	65.106	372.410	0.000	75.794	306.644	7.000
74.300	-1.685	6.988	1.000	65.105	371.359	0.000	75.957	306.600	7.000
74.400	-1.684	6.988	1.000	65.105	370.217	0.000	75.272	306.665	7.000
74.500	-1.683	6.985	1.000	65.106	363.338	0.000	75.247	306.646	7.000
74.600	-1.661	6.968	1.000	65.106	354.775	0.000	74.790	306.683	7.000
74.700	-1.639	6.953	1.000	65.105	359.462	0.000	74.637	306.672	7.000
74.800	-1.634	6.947	1.000	65.103	356.895	0.000	74.609	306.677	7.000
74.900	-1.630	6.944	1.000	65.063	356.815	0.000	73.630	306.745	7.000
75.000	-1.630	6.944	1.000	65.091	349.306	0.000	73.819	306.728	7.000
75.100	-1.629	6.944	1.000	65.062	351.520	0.000	74.329	306.700	7.000
75.200	-1.630	6.945	1.000	65.074	361.068	0.000	74.537	306.645	7.000
75.300	-1.625	6.939	1.000	65.059	371.952	0.000	76.791	306.435	7.000
75.400	-1.597	6.920	1.000	65.090	382.181	0.000	77.126	306.361	7.000
75.500	-1.583	6.910	1.000	65.063	385.270	0.000	78.128	306.268	7.000
75.600	-1.578	6.905	1.000	65.091	387.406	0.000	77.192	306.298	7.000
75.700	-1.578	6.904	1.000	65.062	384.476	0.000	77.431	306.235	7.000
75.800	-1.578	6.905	1.000	65.056	378.611	0.000	77.340	306.258	7.000
75.900	-1.577	6.904	1.000	65.055	370.976	0.000	75.359	306.386	7.000
76.000	-1.577	6.903	1.000	65.057	359.386	0.000	75.403	306.377	7.000
76.100	-1.576	6.902	1.000	65.056	361.364	0.000	75.061	306.396	7.000
76.200	-1.558	6.886	1.000	65.055	357.625	0.000	74.817	306.419	7.000
76.300	-1.537	6.871	1.000	65.057	352.325	0.000	74.346	306.452	7.000
76.400	-1.529	6.865	1.000	65.057	354.231	0.000	74.290	306.463	7.000
76.500	-1.526	6.864	1.000	65.055	354.007	0.000	74.803	306.414	7.000
76.600	-1.526	6.862	1.000	65.056	349.189	0.000	73.794	306.484	7.000
76.700	-1.526	6.863	1.000	65.054	353.486	0.000	74.735	306.383	7.000
76.800	-1.526	6.862	1.000	65.054	354.970	0.000	74.485	306.371	7.000
76.900	-1.523	6.858	1.000	65.056	360.484	0.000	74.808	306.357	7.000
77.000	-1.498	6.843	1.000	65.057	364.045	0.000	74.881	306.313	7.000
77.100	-1.483	6.830	1.000	65.056	360.237	0.000	75.473	306.257	7.000
77.200	-1.476	6.826	1.000	65.054	365.035	0.000	74.920	306.268	7.000
77.300	-1.475	6.824	1.000	65.056	371.365	0.000	77.022	306.111	7.000
77.400	-1.474	6.825	1.000	65.057	385.652	0.000	76.919	306.068	7.000
77.500	-1.474	6.824	1.000	65.057	376.899	0.000	77.719	305.933	7.000
77.600	-1.474	6.825	1.000	65.058	381.241	0.000	77.310	305.972	7.000
77.700	-1.474	6.824	1.000	65.057	382.818	0.000	77.791	305.875	7.000
77.800	-1.456	6.813	1.000	65.057	381.894	0.000	77.685	305.897	7.000
77.900	-1.433	6.796	1.000	65.056	372.223	0.000	75.521	306.047	7.000
78.000	-1.424	6.791	1.000	65.057	369.855	0.000	76.343	305.947	7.000
78.100	-1.422	6.789	1.000	65.056	367.991	0.000	75.804	306.016	7.000
78.200	-1.422	6.787	1.000	65.013	358.572	0.000	74.390	306.122	7.000
78.300	-1.422	6.788	1.000	65.045	356.009	0.000	75.357	306.055	7.000
78.400	-1.424	6.787	1.000	65.012	358.837	0.000	74.654	306.108	7.000
78.500	-1.420	6.786	1.000	65.010	362.361	0.000	75.584	305.964	7.000
78.600	-1.396	6.766	1.000	65.009	357.357	0.000	74.353	306.108	7.000
78.700	-1.381	6.757	1.000	65.009	350.809	0.000	75.486	305.958	7.000
78.800	-1.376	6.753	1.000	65.009	348.543	0.000	74.591	306.049	7.000
78.900	-1.375	6.754	1.000	65.008	351.582	0.000	73.861	306.116	7.000
79.000	-1.373	6.751	1.000	65.008	369.169	0.000	76.154	305.906	7.000
79.100	-1.375	6.752	1.000	65.007	372.090	0.000	76.980	305.780	7.000
79.200	-1.372	6.751	1.000	65.007	378.541	0.000	77.128	305.724	7.000
79.300	-1.374	6.752	1.000	65.008	382.343	0.000	77.797	305.630	7.000
79.400	-1.358	6.740	1.000	65.009	386.299	0.000	77.299	305.675	7.000
79.500	-1.335	6.723	1.000	65.007	386.442	0.000	78.050	305.544	7.000
79.600	-1.327	6.721	1.000	65.007	372.004	0.000	77.350	305.591	7.000
79.700	-1.325	6.719	1.000	65.008	367.108	0.000	77.042	305.592	7.000
79.800	-1.325	6.717	1.000	65.007	373.066	0.000	76.129	305.673	7.000
79.900	-1.325	6.717	1.000	65.008	365.893	0.000	75.120	305.780	7.000
80.000	-1.326	6.719	1.000	65.007	355.249	0.000	75.524	305.705	7.000
80.100	-1.325	6.715	1.000	65.005	352.886	0.000	75.532	305.751	7.000
80.200	-1.304	6.702	1.000	65.007	355.843	0.000	74.860	305.755	7.000
80.300	-1.287	6.689	1.000	65.007	359.052	0.000	75.383	305.701	7.000
80.400	-1.283	6.684	1.000	65.008	361.288	0.000	74.319	305.792	7.000
80.500	-1.281	6.684	1.000	65.007	358.178	0.000	76.042	305.614	7.000
80.600	-1.280	6.683	1.000	65.007	357.119	0.000	74.531	305.717	7.000
80.700	-1.280	6.684	1.000	64.962	351.875	0.000	73.771	305.800	7.000
80.800	-1.280	6.683	1.000	64.997	350.437	0.000	74.866	305.728	7.000
80.900	-1.280	6.683	1.000	64.960	356.878	0.000	74.084	305.750	7.000
81.000	-1.271	6.675	1.000	64.958	357.166	0.000	75.575	305.616	7.000
81.100	-1.244	6.659	1.000	64.959	362.263	0.000	74.589	305.665	7.000
81.200	-1.236	6.654	1.000	64.960	371.896	0.000	76.612	305.474	7.000
81.300	-1.236	6.652	1.000	64.958	375.509	0.000	77.807	305.352	7.000
81.400	-1.234	6.651	1.000	64.958	384.076	0.000	77.543	305.356	7.000
81.500	-1.234	6.651	1.000	64.957	386.300	0.000	78.385	305.215	7.000
81.600	-1.234	6.651	1.000	64.959	380.941	0.000	78.034	305.231	7.000
81.700	-1.233	6.651	1.000	64.959	378.729	0.000	76.877	305.298	7.000
81.800	-1.214	6.638	1.000	64.959	379.770	0.000	77.042	305.282	7.000
81.900	-1.196	6.629	1.000	64.959	378.756	0.000	76.282	305.352	7.000
82.000	-1.192	6.623	1.000	64.959	375.458	0.000	77.172	305.250	6.516
82.100	-1.189	6.622	1.000	64.959	367.970	0.000	76.473	305.312	6.500
82.200	-1.189	6.623	1.000	64.959	370.895	0.000	76.533	305.268	6.500
82.300	-1.189	6.621	1.000	64.959	370.040	0.000	76.146	305.282	6.500
82.400	-1.189	6.621	1.000	64.957	364.585	0.000	74.868	305.380	6.500
82.500	-1.188	6.622	1.000	64.959	355.190	0.000	76.202	305.262	6.500
82.600	-1.180	6.614	1.000	64.958	355.005	0.000	76.368	305.263	6.500
82.700	-1.157	6.600	1.000	64.957	364.171	0.000	74.545	305.371	6.500
82.800	-1.150	6.594	1.000	64.959	357.307	0.000	76.363	305.321	6.500
82.900	-1.150	6.592	1.000	64.960	356.404	0.000	74.609	305.390	6.500
83.000	-1.145	6.591	1.000	64.959	355.892	0.000	76.068	305.261	6.500
83.100	-1.147	6.592	1.000	64.960	359.058	0.000	74.696	305.340	6.500
83.200	-1.147	6.592	1.000	64.956	359.049	0.000	75.840	305.201	6.500
83.300	-1.145	6.591	1.000	64.958	356.246	0.000	75.270	305.250	6.500
83.400	-1.129	6.578	1.000	64.959	362.110	0.000	74.675	305.305	6.500
83.500	-1.110	6.568	1.000	64.958	356.064	0.000	76.302	305.136	6.500
83.600	-1.104	6.564	1.000	64.957	362.025	0.000	75.698	305.135	6.500
83.700	-1.102	6.563	1.000	64.958	366.506	0.000	75.950	305.130	6.500
83.800	-1.102	6.563	1.000	64.960	383.305	0.000	77.944	304.927	6.500
83.900	-1.104	6.562	1.000	64.958	392.792	0.000	77.702	304.887	6.500
84.000	-1.102	6.561	1.000	64.959	390.004	0.000	79.065	304.798	6.500
84.100	-1.102	6.560	1.000	64.959	380.302	0.000	76.996	304.873	6.500
84.200	-1.096	6.557	1.000	64.959	361.966	0.000	76.551	304.864	6.500
84.300	-1.074	6.542	1.000	64.949	353.048	0.000	74.396	305.076	6.500
84.400	-1.066	6.537	1.000	64.912	348.421	0.000	72.971	305.247	6.500
84.500	-1.064	6.535	1.000	64.909	350.367	0.000	75.132	305.081	6.500
84.600	-1.062	6.534	1.000	64.911	361.641	0.000	76.307	304.971	6.500
84.700	-1.062	6.534	1.000	64.911	370.995	0.000	75.509	304.979	6.500
84.800	-1.062	6.533	1.000	64.956	375.303	0.000	77.660	304.816	6.500
84.900	-1.060	6.534	1.000	64.910	385.786	0.000	76.327	304.880	6.500
85.000	-1.050	6.525	1.000	64.912	377.406	0.000	77.643	304.741	6.500
85.100	-1.029	6.514	1.000	64.909	369.426	0.000	75.711	304.884	6.500
85.200	-1.024	6.509	1.000	64.910	373.197	0.000	76.950	304.731	6.500
85.300	-1.021	6.509	1.000	64.908	370.294	0.000	76.005	304.814	6.500
85.400	-1.020	6.508	1.000	64.908	365.953	0.000	74.726	304.898	6.500
85.500	-1.020	6.508	1.000	64.908	358.253	0.000	76.684	304.751	6.500
85.600	-1.020	6.508	1.000	64.908	367.313	0.000	75.791	304.784	6.500
85.700	-1.020	6.508	1.000	64.908	364.610	0.000	75.278	304.827	6.500
85.800	-1.015	6.504	1.000	64.908	360.536	0.000	75.749	304.789	6.500
85.900	-0.997	6.491	1.000	64.909	360.201	0.000	75.032	304.830	6.500
86.000	-0.988	6.484	1.000	64.909	369.566	0.000	76.549	304.703	6.500
86.100	-0.986	6.482	1.000	64.908	360.661	0.000	74.323	304.853	6.500
86.200	-0.984	6.482	1.000	64.908	356.387	0.000	76.805	304.625	6.500
86.300	-0.984	6.481	1.000	64.910	361.905	0.000	75.469	304.698	6.500
86.400	-0.984	6.481	1.000	64.909	361.240	0.000	74.726	304.777	6.500
86.500	-0.986	6.482	1.000	64.908	369.455	0.000	77.191	304.545	6.500
86.600	-0.976	6.473	1.000	64.908	370.343	0.000	76.772	304.556	6.500
86.700	-0.957	6.460	1.000	64.909	373.065	0.000	76.536	304.525	6.500
86.800	-0.951	6.456	1.000	64.908	381.828	0.000	78.165	304.392	6.500
86.900	-0.949	6.455	1.000	64.908	380.737	0.000	76.724	304.495	6.500
87.000	-0.949	6.455	1.000	64.909	383.443	0.000	81.609	304.085	6.500
87.100	-0.948	6.454	1.000	64.908	384.458	0.000	77.858	304.353	6.500
87.200	-0.948	6.454	1.000	64.909	389.750	0.000	78.324	304.216	6.500
87.300	-0.949	6.456	1.000	64.909	380.398	0.000	77.709	304.280	6.500
87.400	-0.944	6.456	1.000	64.908	368.460	0.000	74.935	304.492	6.500
87.500	-0.927	6.440	1.000	64.909	367.841	0.000	77.785	304.280	6.500
87.600	-0.919	6.434	1.000	64.908	367.841	0.000	76.197	304.402	6.500
87.700	-0.918	6.431	1.000	64.908	368.047	0.000	76.082	304.376	6.500
87.800	-0.916	6.430	1.000	64.907	382.206	0.000	78.081	304.222	6.500
87.900	-0.916	6.430	1.000	64.909	385.085	0.000	77.267	304.259	6.500
88.000	-0.916	6.431	1.000	64.910	384.184	0.000	79.046	304.026	6.500
88.100	-0.916	6.431	1.000	64.908	392.808	0.000	77.396	304.174	6.500
88.200	-0.909	6.423	1.000	64.909	382.208	0.000	79.609	303.922	6.500
88.300	-0.892	6.412	1.000	64.909	368.666	0.000	77.893	304.079	6.500
88.400	-0.887	6.410	1.000	64.910	374.048	0.000	75.864	304.238	6.500
88.500	-0.884	6.408	1.000	64.909	370.170	0.000	77.170	304.110	6.500
88.600	-0.884	6.407	1.000	64.909	366.665	0.000	75.852	304.242	6.500
88.700	-0.884	6.407	1.000	64.908	362.793	0.000	76.109	304.192	6.500
88.800	-0.884	6.406	1.000	64.910	368.896	0.000	76.641	304.150	6.500
88.900	-0.885	6.409	1.000	64.908	364.743	0.000	75.112	304.287	6.500
89.000	-0.882	6.405	1.000	64.909	367.514	0.000	77.023	304.080	6.500
89.100	-0.870	6.393	1.000	64.908	361.984	0.000	75.731	304.234	6.500
89.200	-0.858	6.387	1.000	64.908	361.572	0.000	76.978	304.038	6.500
89.300	-0.858	6.385	1.000	64.908	367.265	0.000	76.461	304.078	6.500
89.400	-0.857	6.385	1.000	64.908	367.964	0.000	75.211	304.191	6.500
89.500	-0.856	6.383	1.000	64.909	367.306	0.000	77.341	303.992	6.500
89.600	-0.855	6.383	1.000	64.910	363.461	0.000	76.242	304.083	6.500
89.700	-0.857	6.384	1.000	64.908	369.620	0.000	76.446	303.994	6.500
89.800	-0.853	6.379	1.000	64.881	367.951	0.000	76.321	304.001	6.500
89.900	-0.838	6.369	1.000	64.908	362.275	0.000	74.918	304.134	6.500
90.000	-0.832	6.364	1.000	64.864	363.393	0.000	77.113	303.913	6.500
90.100	-0.829	6.361	1.000	64.897	365.588	0.000	76.573	303.921	6.500
90.200	-0.829	6.361	1.000	64.862	367.579	0.000	77.454	303.845	6.500
90.300	-0.831	6.361	1.000	64.898	371.664	0.000	76.410	303.940	6.500
90.400	-0.828	6.361	1.000	64.863	378.182	0.000	76.333	303.903	6.500
90.500	-0.827	6.361	1.000	64.897	378.584	0.000	79.101	303.686	6.500
90.600	-0.826	6.360	1.000	64.862	381.832	0.000	77.448	303.780	6.500
90.700	-0.813	6.350	1.000	64.861	373.857	0.000	77.346	303.699	6.500
90.800	-0.805	6.343	1.000	64.862	368.162	0.000	76.313	303.788	6.500
90.900	-0.801	6.341	1.000	64.861	366.013	0.000	75.559	303.901	6.500
91.000	-0.800	6.341	1.000	64.862	374.597	0.000	78.158	303.640	6.500
91.100	-0.800	6.339	1.000	64.860	387.360	0.000	78.170	303.565	6.500
91.200	-0.800	6.339	1.000	64.906	384.592	0.000	78.082	303.547	6.500
91.300	-0.800	6.339	1.000	64.899	394.845	0.000	79.200	303.429	6.500
91.400	-0.797	6.338	1.000	64.908	400.363	0.000	78.372	303.447	6.500
91.500	-0.784	6.328	1.000	64.881	390.075	0.000	79.355	303.410	6.500
91.600	-0.779	6.320	1.000	64.906	366.914	0.000	76.192	303.649	6.500
91.700	-0.776	6.320	1.000	64.863	355.384	0.000	75.500	303.665	6.500
91.800	-0.775	6.320	1.000	64.860	351.110	0.000	75.026	303.704	6.500
91.900	-0.777	6.320	1.000	64.861	363.566	0.000	74.511	303.801	6.500
92.000	-0.775	6.320	1.000	64.904	366.871	0.000	78.353	303.457	6.500
92.100	-0.774	6.320	1.000	64.861	376.928	0.000	77.885	303.449	6.500
92.200	-0.774	6.319	1.000	64.879	371.383	0.000	75.288	303.610	6.500
92.300	-0.765	6.312	1.000	64.861	369.924	0.000	76.136	303.574	6.500
92.400	-0.754	6.304	1.000	64.859	370.264	0.000	75.720	303.569	6.500
92.500	-0.751	6.301	1.000	64.859	372.109	0.000	79.072	303.361	6.500
92.600	-0.749	6.300	1.000	64.879	383.582	0.000	76.945	303.460	6.500
92.700	-0.751	6.299	1.000	64.861	389.034	0.000	78.437	303.241	6.500
92.800	-0.750	6.300	1.000	64.880	383.554	0.000	78.222	303.258	6.500
92.900	-0.748	6.300	1.000	64.863	377.215	0.000	76.362	303.405	6.500
93.000	-0.747	6.299	1.000	64.878	375.305	0.000	77.845	303.223	6.500
93.100	-0.732	6.289	1.000	64.861	373.450	0.000	77.118	303.272	6.500
93.200	-0.724	6.285	1.000	64.858	367.083	0.000	75.398	303.397	6.500
93.300	-0.722	6.284	1.000	64.861	364.721	0.000	78.225	303.287	6.500
93.400	-0.722	6.282	1.000	64.858	362.582	0.000	75.910	303.375	6.500
93.500	-0.722	6.282	1.000	64.861	372.558	0.000	77.707	303.283	6.500
93.600	-0.721	6.282	1.000	64.858	370.138	0.000	75.834	303.386	6.500
93.700	-0.722	6.282	1.000	64.860	368.916	0.000	77.537	303.162	6.500
93.800	-0.721	6.283	1.000	64.859	362.760	0.000	76.931	303.205	6.500
93.900	-0.713	6.275	1.000	64.861	367.586	0.000	74.954	303.394	6.500
94.000	-0.701	6.270	1.000	64.859	362.014	0.000	76.876	303.185	6.500
94.100	-0.697	6.268	1.000	64.858	367.696	0.000	77.758	303.126	6.500
94.200	-0.695	6.267	1.000	64.858	382.121	0.000	76.490	303.175	6.500
94.300	-0.696	6.265	1.000	64.860	380.960	0.000	77.814	303.066	6.500
94.400	-0.696	6.267	1.000	64.862	377.642	0.000	76.748	303.114	6.500
94.500	-0.695	6.266	1.000	64.860	374.459	0.000	78.205	303.013	6.500
94.600	-0.694	6.265	1.000	64.859	384.658	0.000	77.005	303.083	6.500
94.700	-0.681	6.256	1.000	64.859	399.742	0.000	80.074	302.758	6.500
94.800	-0.672	6.251	1.000	64.859	399.316	0.000	79.708	302.768	6.500
94.900	-0.669	6.249	1.000	64.861	387.057	0.000	77.339	302.955	6.500
95.000	-0.670	6.249	1.000	64.859	380.355	0.000	78.308	302.812	6.006
95.100	-0.667	6.249	1.000	64.858	370.371	0.000	76.703	302.962	6.000
95.200	-0.668	6.249	1.000	64.858	365.126	0.000	74.809	303.123	6.000
95.300	-0.667	6.249	1.000	64.859	353.151	0.000	75.674	303.096	6.000
95.400	-0.667	6.249	1.000	64.861	351.733	0.000	75.090	303.158	6.000
95.500	-0.659	6.243	1.000	64.860	360.575	0.000	76.032	303.046	6.000
95.600	-0.645	6.239	1.000	64.861	364.006	0.000	75.209	303.106	6.000
95.700	-0.640	6.235	1.000	64.859	371.757	0.000	78.140	302.796	6.000
95.800	-0.640	6.234	1.000	64.859	386.348	0.000	78.130	302.737	6.000
95.900	-0.640	6.236	1.000	64.880	403.689	0.000	79.021	302.664	6.000
96.000	-0.638	6.234	1.000	64.860	404.114	0.000	80.743	302.426	6.000
96.100	-0.638	6.236	1.000	64.859	387.094	0.000	79.032	302.559	6.000
96.200	-0.637	6.233	1.000	64.860	374.289	0.000	76.197	302.745	6.000
96.300	-0.623	6.223	1.000	64.859	364.979	0.000	76.838	302.797	6.000
96.400	-0.612	6.220	1.000	64.858	359.363	0.000	74.730	302.970	6.000
96.500	-0.607	6.217	1.000	64.857	356.524	0.000	75.517	302.854	6.000
96.600	-0.605	6.217	1.000	64.860	368.135	0.000	75.442	302.883	6.000
96.700	-0.605	6.217	1.000	64.858	386.858	0.000	78.977	302.544	6.000
96.800	-0.606	6.218	1.000	64.859	399.979	0.000	79.712	302.429	6.000
96.900	-0.606	6.216	1.000	64.861	391.184	0.000	77.903	302.532	6.000
97.000	-0.606	6.216	1.000	64.858	380.462	0.000	79.173	302.397	6.000
97.100	-0.598	6.212	1.000	64.860	373.762	0.000	76.394	302.630	6.000
97.200	-0.582	6.204	1.000	64.858	363.509	0.000	75.708	302.628	6.000
97.300	-0.578	6.203	1.000	64.858	349.123	0.000	75.321	302.728	6.000
97.400	-0.574	6.203	1.000	64.859	351.367	0.000	74.449	302.830	6.000
97.500	-0.573	6.203	1.000	64.858	362.648	0.000	80.863	302.371	6.000
97.600	-0.573	6.201	1.000	64.859	387.435	0.000	77.167	302.573	6.000
97.700	-0.573	6.202	1.000	64.858	393.910	0.000	79.875	302.211	6.000
97.800	-0.573	6.201	1.000	64.861	386.824	0.000	78.970	302.264	6.000
97.900	-0.561	6.196	1.000	64.860	385.225	0.000	76.958	302.425	6.000
98.000	-0.548	6.190	1.000	64.859	375.189	0.000	77.902	302.344	6.000
98.100	-0.542	6.187	1.000	64.858	367.381	0.000	76.730	302.441	6.000
98.200	-0.543	6.187	1.000	64.858	370.068	0.000	77.030	302.367	6.000
98.300	-0.541	6.187	1.000	64.858	381.194	0.000	78.945	302.220	6.000
98.400	-0.543	6.186	1.000	64.859	394.470	0.000	77.080	302.354	6.000
98.500	-0.543	6.186	1.000	64.857	384.748	0.000	78.588	302.139	6.000
98.600	-0.542	6.188	1.000	64.860	367.748	0.000	75.477	302.407	6.000
98.700	-0.536	6.185	1.000	64.858	354.560	0.000	76.946	302.299	6.000
98.800	-0.516	6.178	1.000	64.859	349.081	0.000	75.232	302.473	6.000
98.900	-0.510	6.175	1.000	64.858	360.311	0.000	74.005	302.593	6.000
99.000	-0.508	6.174	1.000	64.859	369.079	0.000	78.858	302.184	6.000
99.100	-0.507	6.173	1.000	64.861	389.602	0.000	78.585	302.165	6.000
99.200	-0.505	6.174	1.000	64.860	399.938	0.000	80.152	301.908	6.000
99.300	-0.506	6.172	1.000	64.859	402.840	0.000	80.359	301.884	6.000
99.400	-0.505	6.173	1.000	64.861	394.113	0.000	77.887	302.077	6.000
99.500	-0.492	6.168	1.000	64.858	393.230	0.000	79.978	301.802	6.000
99.600	-0.475	6.160	1.000	64.860	389.927	0.000	76.894	302.118	6.000
99.700	-0.469	6.160	1.000	64.857	379.625	0.000	78.774	301.904	6.000
99.800	-0.468	6.159	1.000	64.859	368.096	0.000	77.451	302.023	6.000
99.900	-0.467	6.159	1.000	64.858	359.952	0.000	74.851	302.248	6.000
100.000	-0.468	6.158	1.000	64.859	365.965	0.000	77.436	302.091	6.000
100.100	-0.467	6.158	1.000	64.859	372.910	0.000	76.442	302.133	6.000
100.200	-0.469	6.158	1.000	64.861	377.309	0.000	78.015	301.903	6.000
100.300	-0.461	6.157	1.000	64.859	383.674	0.000	78.826	301.821	6.000
100.400	-0.442	6.151	1.000	64.858	387.255	0.000	77.302	301.984	6.000
100.500	-0.433	6.148	1.000	64.857	384.412	0.000	79.199	301.731	6.000
100.600	-0.430	6.145	1.000	64.858	376.125	0.000	78.632	301.777	6.000
100.700	-0.430	6.147	1.000	64.859	370.514	0.000	79.015	301.707	6.000
100.800	-0.430	6.145	1.000	64.859	363.969	0.000	76.344	301.953	6.000
100.900	-0.428	6.145	1.000	64.858	353.005	0.000	73.835	302.178	6.000
101.000	-0.428	6.147	1.000	64.860	350.870	0.000	76.467	302.015	6.000
101.100	-0.417	6.141	1.000	64.860	363.306	0.000	75.899	302.056	6.000
101.200	-0.400	6.136	1.000	64.858	372.643	0.000	77.483	301.856	6.000
101.300	-0.392	6.132	1.000	64.860	381.118	0.000	77.855	301.783	6.000
101.400	-0.391	6.133	1.000	64.860	377.859	0.000	76.695	301.866	6.000
101.500	-0.391	6.134	1.000	64.861	380.867	0.000	79.708	301.551	6.000
101.600	-0.391	6.132	1.000	64.861	379.992	0.000	78.148	301.649	6.000
101.700	-0.391	6.132	1.000	64.859	378.761	0.000	76.219	301.768	6.000
101.800	-0.391	6.133	1.000	64.860	377.523	0.000	77.365	301.718	6.000
101.900	-0.387	6.132	1.000	64.861	373.431	0.000	76.439	301.764	6.000
102.000	-0.367	6.123	1.000	64.861	374.437	0.000	79.090	301.584	6.000
102.100	-0.358	6.120	1.000	64.861	375.471	0.000	76.514	301.752	6.000
102.200	-0.354	6.119	1.000	64.860	371.495	0.000	77.448	301.578	6.000
102.300	-0.353	6.119	1.000	64.861	365.354	0.000	76.638	301.668	6.000
102.400	-0.352	6.119	1.000	64.859	373.429	0.000	76.265	301.732	6.000
102.500	-0.352	6.118	1.000	64.862	375.577	0.000	78.517	301.489	6.000
102.600	-0.351	6.116	1.000	64.860	375.567	0.000	78.222	301.513	6.000
102.700	-0.344	6.115	1.000	64.861	375.157	0.000	75.681	301.642	6.000
102.800	-0.327	6.108	1.000	64.861	367.558	0.000	75.934	301.655	6.000
102.900	-0.320	6.106	1.000	64.858	377.476	0.000	76.681	301.583	6.000
103.000	-0.316	6.104	1.000	64.859	373.799	0.000	77.982	301.502	6.000
103.100	-0.317	6.104	1.000	64.861	367.612	0.000	76.344	301.612	6.000
103.200	-0.316	6.103	1.000	64.861	370.853	0.000	77.402	301.418	6.000
103.300	-0.317	6.103	1.000	64.857	374.744	0.000	77.449	301.431	6.000
103.400	-0.317	6.104	1.000	64.859	376.564	0.000	75.630	301.583	6.000
103.500	-0.314	6.103	1.000	64.859	367.858	0.000	78.943	301.288	6.000
103.600	-0.296	6.094	1.000	64.858	367.828	0.000	77.649	301.357	6.000
103.700	-0.286	6.091	1.000	64.859	372.016	0.000	76.128	301.444	6.000
103.800	-0.284	6.088	1.000	64.858	373.104	0.000	78.253	301.403	6.000
103.900	-0.283	6.089	1.000	64.860	372.324	0.000	76.729	301.388	6.000
104.000	-0.281	6.090	1.000	64.860	374.335	0.000	78.811	301.245	6.000
104.100	-0.282	6.087	1.000	64.858	373.465	0.000	75.396	301.489	6.000
104.200	-0.282	6.088	1.000	64.860	375.998	0.000	78.947	301.124	6.000
104.300	-0.278	6.085	1.000	64.859	372.643	0.000	77.209	301.258	6.000
104.400	-0.260	6.079	1.000	64.858	373.404	0.000	75.652	301.408	6.000
104.500	-0.254	6.075	1.000	64.859	372.349	0.000	78.596	301.109	6.000
104.600	-0.250	6.074	1.000	64.859	373.536	0.000	77.190	301.193	6.000
104.700	-0.251	6.074	1.000	64.858	370.184	0.000	75.617	301.302	6.000
104.800	-0.252	6.074	1.000	64.860	377.716	0.000	78.212	301.134	6.000
104.900	-0.250	6.074	1.000	64.860	374.644	0.000	77.182	301.151	6.000
105.000	-0.249	6.074	1.000	64.861	373.466	0.000	77.218	301.144	6.000
105.100	-0.249	6.072	1.000	64.861	372.271	0.000	75.904	301.281	6.000
105.200	-0.235	6.068	1.000	64.859	369.201	0.000	77.750	301.018	6.000
105.300	-0.223	6.061	1.000	64.859	370.900	0.000	77.904	301.039	6.000
105.400	-0.220	6.061	1.000	64.859	375.302	0.000	75.363	301.244	6.000
105.500	-0.219	6.061	1.000	64.859	372.433	0.000	78.814	300.939	6.000
105.600	-0.219	6.061	1.000	64.858	368.283	0.000	77.359	301.039	6.000
105.700	-0.219	6.061	1.000	64.850	366.928	0.000	76.052	301.091	6.000
105.800	-0.218	6.060	1.000	64.858	374.195	0.000	77.185	301.060	6.000
105.900	-0.214	6.058	1.000	64.835	375.691	0.000	75.048	301.208	6.000
106.000	-0.196	6.052	1.000	64.857	368.875	0.000	77.275	300.995	6.000
106.100	-0.188	6.047	1.000	64.859	378.773	0.000	76.021	301.118	6.000
106.200	-0.187	6.048	1.000	64.860	380.860	0.000	77.164	300.953	6.000
106.300	-0.186	6.048	1.000	64.833	377.019	0.000	76.549	300.994	6.000
106.400	-0.185	6.046	1.000	64.856	368.634	0.000	75.837	301.074	6.000
106.500	-0.184	6.046	1.000	64.834	371.081	0.000	77.885	300.863	6.000
106.600	-0.186	6.046	1.000	64.857	374.820	0.000	77.527	300.880	6.000
106.700	-0.185	6.046	1.000	64.834	373.293	0.000	75.830	300.986	6.000
106.800	-0.172	6.039	1.000	64.856	375.400	0.000	77.402	300.872	6.000
106.900	-0.159	6.036	1.000	64.817	377.528	0.000	76.222	300.944	6.000
107.000	-0.155	6.034	1.000	64.847	372.786	0.000	76.824	300.846	6.000
107.100	-0.155	6.034	1.000	64.833	373.351	0.000	76.102	300.911	6.000
107.200	-0.154	6.034	1.000	64.854	370.319	0.000	77.506	300.752	6.000
107.300	-0.155	6.032	1.000	64.816	369.218	0.000	77.067	300.778	6.000
107.400	-0.154	6.032	1.000	64.846	371.926	0.000	75.646	300.886	6.000
107.500	-0.152	6.031	1.000	64.816	373.350	0.000	77.845	300.698	6.000
107.600	-0.136	6.026	1.000	64.846	372.751	0.000	77.154	300.730	6.000
107.700	-0.128	6.023	1.000	64.818	374.095	0.000	76.426	300.721	6.000
107.800	-0.126	6.021	1.000	64.845	377.107	0.000	77.848	300.660	6.000
107.900	-0.126	6.021	1.000	64.818	376.711	0.000	75.858	300.783	6.000
108.000	-0.125	6.019	1.000	64.812	372.690	0.000	80.456	300.447	6.000
108.100	-0.124	6.020	1.000	64.814	370.153	0.000	76.093	300.729	6.000
108.200	-0.125	6.020	1.000	64.813	375.764	0.000	77.464	300.560	6.000
108.300	-0.124	6.020	1.000	64.815	373.821	0.000	76.967	300.596	6.000
108.400	-0.110	6.014	1.000	64.814	372.165	0.000	75.889	300.660	6.000
108.500	-0.100	6.009	1.000	64.815	370.131	0.000	78.046	300.493	6.000
108.600	-0.097	6.006	1.000	64.814	371.084	0.000	76.894	300.557	6.000
108.700	-0.096	6.004	1.000	64.816	378.053	0.000	76.754	300.526	6.000
108.800	-0.095	6.005	1.000	64.812	372.804	0.000	77.200	300.501	6.000
108.900	-0.094	6.005	1.000	64.814	374.945	0.000	76.492	300.549	6.000
109.000	-0.095	6.004	1.000	64.814	376.450	0.000	77.670	300.410	5.502
109.100	-0.091	6.003	1.000	64.854	380.099	0.000	76.562	300.513	5.500
109.200	-0.079	5.998	1.000	64.817	382.719	0.000	79.375	300.214	5.500
109.300	-0.071	5.996	1.000	64.853	377.118	0.000	77.737	300.331	5.500
109.400	-0.068	5.992	1.000	64.820	376.291	0.000	76.589	300.429	5.500
109.500	-0.068	5.992	1.000	64.854	385.448	0.000	78.607	300.207	5.500
109.600	-0.068	5.991	1.000	64.818	386.377	0.000	77.731	300.289	5.500
109.700	-0.067	5.992	1.000	64.855	377.535	0.000	77.558	300.221	5.500
109.800	-0.067	5.992	1.000	64.836	381.434	0.000	78.526	300.164	5.500
109.900	-0.067	5.992	1.000	64.857	386.126	0.000	76.368	300.341	5.500
110.000	-0.057	5.990	1.000	64.835	386.261	0.000	79.195	300.048	5.500
110.100	-0.042	5.984	1.000	64.858	377.598	0.000	76.532	300.281	5.500
110.200	-0.039	5.982	1.000	64.834	374.496	0.000	78.038	300.095	5.500
110.300	-0.038	5.983	1.000	64.855	383.078	0.000	77.707	300.140	5.500
110.400	-0.037	5.982	1.000	64.833	376.492	0.000	75.392	300.325	5.500
110.500	-0.037	5.982	1.000	64.856	372.768	0.000	78.271	300.094	5.500
110.600	-0.037	5.981	1.000	64.818	374.379	0.000	76.659	300.214	5.500
110.700	-0.035	5.981	1.000	64.847	371.543	0.000	77.156	300.114	5.500
110.800	-0.023	5.975	1.000	64.833	373.291	0.000	76.820	300.102	5.500
110.900	-0.013	5.970	1.000	64.854	375.154	0.000	76.227	300.178	5.500
111.000	-0.010	5.969	1.000	64.818	378.575	0.000	77.580	300.002	5.500
111.100	-0.009	5.969	1.000	64.847	378.620	0.000	77.298	300.017	5.500
111.200	-0.011	5.967	1.000	64.817	374.186	0.000	78.218	299.916	5.500
111.300	-0.009	5.970	1.000	64.846	377.169	0.000	77.072	300.012	5.500
111.400	-0.009	5.969	1.000	64.819	379.835	0.000	76.573	300.050	5.500
111.500	-0.008	5.969	1.000	64.846	378.754	0.000	78.295	299.910	5.500
111.600	-0.001	5.965	1.000	64.860	378.841	0.000	77.487	299.966	5.500
111.700	0.012	5.958	1.000	64.858	377.839	0.000	77.728	299.872	5.500
111.800	0.018	5.957	1.000	64.859	383.412	0.000	78.348	299.794	5.500
111.900	0.017	5.956	1.000	64.851	384.071	0.000	76.647	299.916	5.500
112.000	0.018	5.956	1.000	64.857	374.466	0.000	77.840	299.782	5.500
112.100	0.018	5.957	1.000	64.850	376.931	0.000	77.977	299.755	5.500
112.200	0.019	5.957	1.000	64.857	379.548	0.000	76.414	299.837	5.500
112.300	0.018	5.956	1.000	64.851	378.779	0.000	77.304	299.785	5.500
112.400	0.030	5.950	1.000	64.860	381.747	0.000	76.331	299.841	5.500
112.500	0.040	5.945	1.000	64.861	377.934	0.000	78.836	299.659	5.500
112.600	0.043	5.945	1.000	64.861	380.647	0.000	77.670	299.706	5.500
112.700	0.043	5.944	1.000	64.860	377.850	0.000	78.120	299.589	5.500
112.800	0.043	5.944	1.000	64.859	380.354	0.000	77.478	299.647	5.500
112.900	0.044	5.945	1.000	64.858	385.610	0.000	77.087	299.691	5.500
113.000	0.045	5.945	1.000	64.860	379.657	0.000	78.736	299.509	5.500
113.100	0.043	5.945	1.000	64.860	381.818	0.000	78.459	299.496	5.500
113.200	0.051	5.943	1.000	64.859	385.655	0.000	77.049	299.601	5.500
113.300	0.066	5.938	1.000	64.862	381.716	0.000	77.474	299.580	5.500
113.400	0.069	5.936	1.000	64.859	379.062	0.000	77.098	299.557	5.500
113.500	0.071	5.934	1.000	64.860	385.598	0.000	78.995	299.442	5.500
113.600	0.071	5.934	1.000	64.860	393.181	0.000	77.115	299.539	5.500
113.700	0.071	5.934	1.000	64.861	382.182	0.000	78.149	299.381	5.500
113.800	0.073	5.935	1.000	64.859	382.788	0.000	77.986	299.404	5.500
113.900	0.075	5.934	1.000	64.859	378.059	0.000	76.466	299.531	5.500
114.000	0.083	5.930	1.000	64.859	380.123	0.000	78.082	299.340	5.500
114.100	0.094	5.925	1.000	64.858	374.460	0.000	77.367	299.401	5.500
114.200	0.097	5.924	1.000	64.859	372.522	0.000	76.318	299.462	5.500
114.300	0.098	5.924	1.000	64.859	374.236	0.000	79.463	299.327	5.500
114.400	0.099	5.924	1.000	64.859	377.957	0.000	76.709	299.431	5.500
114.500	0.101	5.924	1.000	64.858	388.373	0.000	78.715	299.259	5.500
114.600	0.100	5.924	1.000	64.860	381.094	0.000	76.657	299.373	5.500
114.700	0.100	5.924	1.000	64.859	378.684	0.000	78.743	299.155	5.500
114.800	0.104	5.921	1.000	64.859	376.850	0.000	77.441	299.267	5.500
114.900	0.119	5.915	1.000	64.859	383.192	0.000	76.647	299.345	5.500
115.000	0.126	5.912	1.000	64.861	379.470	0.000	78.234	299.144	5.500
115.100	0.127	5.911	1.000	64.860	378.936	0.000	78.105	299.146	5.500
115.200	0.127	5.911	1.000	64.859	383.422	0.000	77.317	299.181	5.500
115.300	0.125	5.911	1.000	64.859	384.189	0.000	78.640	299.091	5.500
115.400	0.127	5.911	1.000	64.858	383.019	0.000	77.794	299.098	5.500
115.500	0.128	5.912	1.000	64.858	384.102	0.000	78.793	299.038	5.500
115.600	0.137	5.908	1.000	64.860	380.349	0.000	76.659	299.184	5.500
115.700	0.151	5.905	1.000	64.860	383.696	0.000	78.714	298.951	5.500
115.800	0.154	5.903	1.000	64.858	382.923	0.000	78.306	298.975	5.500
115.900	0.158	5.902	1.000	64.858	382.026	0.000	77.236	299.063	5.500
116.000	0.157	5.902	1.000	64.859	374.899	0.000	77.883	298.965	5.500
116.100	0.159	5.904	1.000	64.859	375.494	0.000	77.927	298.968	5.500
116.200	0.157	5.902	1.000	64.860	380.277	0.000	76.440	299.047	5.500
116.300	0.157	5.904	1.000	64.858	371.726	0.000	77.989	298.952	5.500
116.400	0.161	5.900	1.000	64.859	371.160	0.000	75.798	299.123	5.500
116.500	0.179	5.896	1.000	64.859	378.267	0.000	77.946	298.910	5.500
116.600	0.185	5.892	1.000	64.859	375.529	0.000	76.489	299.035	5.500
116.700	0.190	5.893	1.000	64.857	370.272	0.000	77.278	298.891	5.500
116.800	0.187	5.892	1.000	64.859	371.066	0.000	76.958	298.944	5.500
116.900	0.188	5.892	1.000	64.857	375.324	0.000	75.846	299.021	5.500
117.000	0.189	5.893	1.000	64.859	378.516	0.000	77.387	298.861	5.500
117.100	0.189	5.892	1.000	64.857	368.365	0.000	77.100	298.881	5.500
117.200	0.196	5.888	1.000	64.857	376.168	0.000	76.936	298.859	5.500
117.300	0.213	5.882	1.000	64.859	380.721	0.000	77.549	298.821	5.500
117.400	0.218	5.882	1.000	64.859	380.818	0.000	76.970	298.866	5.500
117.500	0.218	5.882	1.000	64.858	371.584	0.000	77.494	298.778	5.500
117.600	0.220	5.881	1.000	64.859	373.397	0.000	76.212	298.863	5.500
117.700	0.218	5.881	1.000	64.857	377.785	0.000	78.559	298.610	5.500
117.800	0.219	5.881	1.000	64.858	373.639	0.000	77.231	298.716	5.500
117.900	0.218	5.882	1.000	64.857	372.410	0.000	76.528	298.770	5.500
118.000	0.222	5.882	1.000	64.857	373.719	0.000	78.106	298.606	5.500
118.100	0.238	5.875	1.000	64.857	381.622	0.000	77.950	298.593	5.500
118.200	0.245	5.873	1.000	64.857	382.039	0.000	76.855	298.622	5.500
118.300	0.245	5.871	1.000	64.857	377.519	0.000	78.062	298.573	5.500
118.400	0.248	5.872	1.000	64.858	376.244	0.000	76.514	298.680	5.500
118.500	0.247	5.869	1.000	64.859	377.469	0.000	80.906	298.338	5.500
118.600	0.248	5.871	1.000	64.859	385.017	0.000	77.517	298.561	5.500
118.700	0.248	5.871	1.000	64.859	377.769	0.000	78.064	298.444	5.500
118.800	0.253	5.868	1.000	64.861	381.787	0.000	78.008	298.455	5.500
118.900	0.269	5.862	1.000	64.861	384.005	0.000	76.886	298.533	5.500
119.000	0.270	5.862	1.000	64.859	384.129	0.000	78.321	298.397	5.500
119.100	0.272	5.860	1.000	64.859	377.622	0.000	77.801	298.422	5.500
119.200	0.273	5.860	1.000	64.857	375.744	0.000	77.960	298.343	5.500
119.300	0.273	5.860	1.000	64.861	379.454	0.000	77.855	298.362	5.500
119.400	0.273	5.860	1.000	64.861	380.853	0.000	76.587	298.469	5.500
119.500	0.273	5.860	1.000	64.860	377.317	0.000	78.151	298.266	5.500
119.600	0.274	5.860	1.000	64.860	373.463	0.000	76.182	298.464	5.500
119.700	0.286	5.854	1.000	64.859	376.305	0.000	79.017	298.210	5.500
119.800	0.294	5.851	1.000	64.859	375.712	0.000	77.184	298.327	5.500
119.900	0.295	5.851	1.000	64.860	380.857	0.000	76.528	298.360	5.500
120.000	0.296	5.847	1.000	64.859	371.502	0.000	77.882	298.218	5.500
120.100	0.298	5.849	1.000	64.861	371.229	0.000	76.880	298.304	5.500
120.200	0.296	5.849	1.000	64.860	380.524	0.000	77.552	298.187	5.500
120.300	0.298	5.851	1.000	64.858	381.167	0.000	77.528	298.195	5.500
120.400	0.300	5.847	1.000	64.859	371.325	0.000	76.315	298.315	5.500
120.500	0.311	5.841	1.000	64.858	376.208	0.000	78.630	298.059	5.500
120.600	0.316	5.840	1.000	64.860	380.652	0.000	76.892	298.238	5.500
120.700	0.318	5.838	1.000	64.859	380.955	0.000	78.310	298.044	5.500
120.800	0.317	5.839	1.000	64.859	375.961	0.000	77.641	298.094	5.500
120.900	0.318	5.839	1.000	64.859	379.744	0.000	76.564	298.153	5.500
121.000	0.315	5.840	1.000	64.860	383.088	0.000	78.911	297.976	5.011
121.100	0.317	5.840	1.000	64.860	375.805	0.000	76.888	298.114	5.000
121.200	0.320	5.837	1.000	64.859	373.534	0.000	77.073	298.023	5.000
121.300	0.328	5.834	1.000	64.859	371.529	0.000	77.674	298.000	5.000
121.400	0.332	5.831	1.000	64.862	382.493	0.000	76.487	298.093	5.000
121.500	0.334	5.831	1.000	64.859	374.969	0.000	78.507	297.886	5.000
121.600	0.335	5.830	1.000	64.860	372.159	0.000	77.649	297.917	5.000
121.700	0.334	5.830	1.000	64.861	374.626	0.000	78.706	297.827	5.000
121.800	0.335	5.830	1.000	64.860	376.382	0.000	77.152	297.946	5.000
121.900	0.335	5.830	1.000	64.861	378.646	0.000	76.241	298.010	5.000
122.000	0.337	5.828	1.000	64.859	378.726	0.000	77.970	297.855	5.000
122.100	0.345	5.824	1.000	64.860	378.727	0.000	77.350	297.886	5.000
122.200	0.348	5.821	1.000	64.859	378.727	0.000	77.932	297.772	5.000
122.300	0.349	5.819	1.000	64.859	378.797	0.000	77.556	297.802	5.000
122.400	0.351	5.820	1.000	64.861	373.652	0.000	76.691	297.887	5.000
122.500	0.350	5.821	1.000	64.860	373.464	0.000	78.313	297.695	5.000
122.600	0.350	5.820	1.000	64.859	378.323	0.000	77.936	297.707	5.000
122.700	0.350	5.820	1.000	64.861	383.835	0.000	76.494	297.783	5.000
122.800	0.351	5.819	1.000	64.860	381.085	0.000	77.789	297.681	5.000
122.900	0.357	5.814	1.000	64.859	371.634	0.000	76.293	297.781	5.000
123.000	0.362	5.812	1.000	64.860	376.424	0.000	78.318	297.650	5.000
123.100	0.365	5.810	1.000	64.858	380.730	0.000	77.033	297.739	5.000
123.200	0.365	5.809	1.000	64.861	381.170	0.000	78.204	297.554	5.000
123.300	0.366	5.811	1.000	64.861	372.645	0.000	77.780	297.577	5.000
123.400	0.365	5.812	1.000	64.859	379.248	0.000	76.811	297.665	5.000
123.500	0.364	5.811	1.000	64.858	383.740	0.000	78.796	297.451	5.000
123.600	0.366	5.810	1.000	64.859	375.837	0.000	77.546	297.540	5.000
123.700	0.371	5.806	1.000	64.859	370.305	0.000	76.568	297.587	5.000
123.800	0.373	5.804	1.000	64.861	371.193	0.000	77.015	297.567	5.000
123.900	0.374	5.803	1.000	64.859	380.354	0.000	76.523	297.572	5.000
124.000	0.375	5.802	1.000	64.859	383.534	0.000	79.030	297.400	5.000
124.100	0.375	5.803	1.000	64.859	373.881	0.000	76.604	297.545	5.000
124.200	0.375	5.802	1.000	64.860	376.468	0.000	78.079	297.365	5.000
124.300	0.374	5.802	1.000	64.860	380.501	0.000	77.639	297.392	5.000
124.400	0.375	5.802	1.000	64.859	389.019	0.000	77.662	297.397	5.000
124.500	0.379	5.799	1.000	64.859	382.430	0.000	78.886	297.235	5.000
124.600	0.386	5.794	1.000	64.859	374.879	0.000	77.939	297.284	5.000
124.700	0.386	5.795	1.000	64.859	382.826	0.000	76.615	297.382	5.000
124.800	0.386	5.795	1.000	64.859	381.191	0.000	78.486	297.290	5.000
124.900	0.386	5.794	1.000	64.861	377.591	0.000	77.751	297.288	5.000
125.000	0.386	5.795	1.000	64.861	378.742	0.000	78.485	297.194	5.000
125.100	0.386	5.795	1.000	64.860	379.074	0.000	76.360	297.355	5.000
125.200	0.387	5.793	1.000	64.859	373.580	0.000	78.205	297.161	5.000
125.300	0.393	5.791	1.000	64.859	372.365	0.000	77.219	297.217	5.000
125.400	0.398	5.788	1.000	64.859	374.509	0.000	75.776	297.323	5.000
125.500	0.399	5.788	1.000	64.860	371.413	0.000	78.357	297.110	5.000
125.600	0.398	5.788	1.000	64.860	368.274	0.000	77.232	297.167	5.000
125.700	0.399	5.788	1.000	64.861	372.293	0.000	75.952	297.239	5.000
125.800	0.398	5.788	1.000	64.859	368.362	0.000	76.911	297.179	5.000
125.900	0.399	5.788	1.000	64.858	378.404	0.000	75.997	297.244	5.000
126.000	0.399	5.788	1.000	64.861	378.937	0.000	77.280	297.153	5.000
126.100	0.402	5.786	1.000	64.860	378.041	0.000	76.461	297.194	5.000
126.200	0.407	5.782	1.000	64.859	372.599	0.000	77.508	297.034	5.000
126.300	0.409	5.781	1.000	64.860	375.270	0.000	77.566	297.038	5.000
126.400	0.409	5.782	1.000	64.860	383.844	0.000	76.750	297.108	5.000
126.500	0.409	5.782	1.000	64.861	383.172	0.000	78.043	296.940	5.000
126.600	0.409	5.782	1.000	64.861	381.254	0.000	77.597	296.959	5.000
126.700	0.409	5.782	1.000	64.859	383.169	0.000	76.943	296.998	5.000
126.800	0.410	5.781	1.000	64.861	380.918	0.000	77.732	296.927	5.000
126.900	0.415	5.777	1.000	64.861	376.945	0.000	76.217	297.059	5.000
127.000	0.419	5.776	1.000	64.860	370.485	0.000	77.144	296.946	5.000
127.100	0.421	5.775	1.000	64.860	374.196	0.000	76.604	296.996	5.000
127.200	0.420	5.775	1.000	64.858	378.648	0.000	77.303	296.874	5.000
127.300	0.421	5.775	1.000	64.861	380.854	0.000	77.172	296.878	5.000
127.400	0.421	5.774	1.000	64.856	373.712	0.000	76.508	296.923	5.000
127.500	0.419	5.774	1.000	64.859	372.563	0.000	77.581	296.813	5.000
127.600	0.419	5.774	1.000	64.858	383.522	0.000	78.140	296.757	5.000
127.700	0.423	5.773	1.000	64.861	381.130	0.000	76.475	296.828	5.000
127.800	0.425	5.771	1.000	64.861	373.989	0.000	77.486	296.767	5.000
127.900	0.428	5.772	1.000	64.861	374.555	0.000	76.508	296.823	5.000
128.000	0.429	5.770	1.000	64.858	380.545	0.000	77.541	296.721	5.000
128.100	0.430	5.770	1.000	64.859	383.782	0.000	76.665	296.793	5.000
128.200	0.429	5.770	1.000	64.861	375.873	0.000	77.781	296.643	5.000
128.300	0.430	5.771	1.000	64.859	378.654	0.000	77.524	296.668	5.000
128.400	0.430	5.771	1.000	64.859	383.069	0.000	76.781	296.712	5.000
128.500	0.432	5.769	1.000	64.859	384.086	0.000	78.071	296.561	5.000
128.600	0.438	5.766	1.000	64.859	376.302	0.000	77.482	296.598	5.000
128.700	0.438	5.767	1.000	64.861	378.728	0.000	77.176	296.602	5.000
128.800	0.439	5.767	1.000	64.859	384.096	0.000	77.158	296.602	5.000
128.900	0.440	5.767	1.000	64.859	369.177	0.000	76.725	296.632	5.000
129.000	0.440	5.766	1.000	64.858	376.021	0.000	79.120	296.414	5.000
129.100	0.440	5.768	1.000	64.859	374.920	0.000	77.151	296.537	5.000
129.200	0.438	5.766	1.000	64.859	378.431	0.000	77.733	296.456	5.000
129.300	0.443	5.764	1.000	64.859	380.829	0.000	77.441	296.453	5.000
129.400	0.448	5.762	1.000	64.861	383.088	0.000	77.163	296.479	5.000
129.500	0.449	5.761	1.000	64.859	379.971	0.000	78.174	296.361	5.000
129.600	0.449	5.762	1.000	64.861	371.033	0.000	77.637	296.392	5.000
129.700	0.451	5.762	1.000	64.859	378.399	0.000	77.065	296.393	5.000
129.800	0.451	5.762	1.000	64.859	383.873	0.000	78.039	296.308	5.000
129.900	0.450	5.761	1.000	64.906	374.959	0.000	75.945	296.448	5.000
130.000	0.451	5.761	1.000	64.860	373.389	0.000	77.782	296.274	5.000
130.100	0.455	5.759	1.000	64.879	383.209	0.000	76.663	296.364	5.000
130.200	0.458	5.759	1.000	64.861	376.257	0.000	77.826	296.261	5.000
130.300	0.461	5.760	1.000	64.905	375.436	0.000	77.548	296.263	5.000
130.400	0.462	5.758	1.000	64.862	375.545	0.000	76.558	296.322	5.000
130.500	0.463	5.758	1.000	64.877	375.487	0.000	77.589	296.230	5.000
130.600	0.461	5.759	1.000	64.863	375.550	0.000	76.999	296.252	5.000
130.700	0.460	5.760	1.000	64.905	375.555	0.000	77.560	296.175	5.000
130.800	0.463	5.759	1.000	64.861	379.276	0.000	77.174	296.192	5.000
130.900	0.463	5.759	1.000	64.879	375.635	0.000	76.212	296.260	5.000
131.000	0.470	5.756	1.000	64.861	377.731	0.000	77.551	296.114	4.505
131.100	0.473	5.756	1.000	64.880	378.815	0.000	76.061	296.229	4.500
131.200	0.474	5.755	1.000	64.861	372.890	0.000	77.591	296.079	4.500
131.300	0.473	5.755	1.000	64.879	380.371	0.000	77.573	296.045	4.500
131.400	0.474	5.756	1.000	64.861	377.104	0.000	76.617	296.099	4.500
131.500	0.473	5.756	1.000	64.896	372.763	0.000	77.987	296.002	4.500
131.600	0.474	5.756	1.000	64.861	379.548	0.000	77.388	296.023	4.500
131.700	0.478	5.753	1.000	64.896	378.794	0.000	77.042	295.996	4.500
131.800	0.483	5.753	1.000	64.863	380.702	0.000	77.266	295.978	4.500
131.900	0.485	5.753	1.000	64.895	373.667	0.000	76.368	296.042	4.500
132.000	0.484	5.753	1.000	64.862	373.385	0.000	77.487	295.892	4.500
132.100	0.484	5.752	1.000	64.897	373.459	0.000	77.812	295.883	4.500
132.200	0.484	5.753	1.000	64.864	381.635	0.000	77.912	295.831	4.500
132.300	0.485	5.753	1.000	64.896	373.013	0.000	76.932	295.884	4.500
132.400	0.484	5.752	1.000	64.863	378.502	0.000	76.449	295.934	4.500
132.500	0.485	5.753	1.000	64.895	378.876	0.000	78.437	295.773	4.500
132.600	0.490	5.751	1.000	64.863	383.710	0.000	77.460	295.815	4.500
132.700	0.493	5.751	1.000	64.895	379.042	0.000	77.593	295.736	4.500
132.800	0.496	5.751	1.000	64.906	378.524	0.000	77.607	295.732	4.500
132.900	0.496	5.751	1.000	64.899	378.778	0.000	77.429	295.753	4.500
133.000	0.494	5.751	1.000	64.906	391.881	0.000	77.853	295.620	4.500
133.100	0.495	5.750	1.000	64.862	377.624	0.000	76.882	295.702	4.500
133.200	0.494	5.749	1.000	64.904	374.085	0.000	76.754	295.734	4.500
133.300	0.498	5.749	1.000	64.899	374.500	0.000	76.920	295.700	4.500
133.400	0.503	5.749	1.000	64.907	380.064	0.000	76.739	295.701	4.500
133.500	0.506	5.748	1.000	64.862	378.974	0.000	78.138	295.556	4.500
133.600	0.508	5.749	1.000	64.904	373.995	0.000	76.757	295.673	4.500
133.700	0.508	5.749	1.000	64.862	375.574	0.000	77.634	295.525	4.500
133.800	0.509	5.748	1.000	64.904	383.349	0.000	77.889	295.519	4.500
133.900	0.507	5.748	1.000	64.863	376.153	0.000	76.532	295.624	4.500
134.000	0.507	5.748	1.000	64.900	372.685	0.000	77.533	295.482	4.500
134.100	0.509	5.749	1.000	64.862	376.293	0.000	77.972	295.450	4.500
134.200	0.516	5.749	1.000	64.903	377.973	0.000	76.972	295.486	4.500
134.300	0.520	5.749	1.000	64.882	380.377	0.000	77.836	295.424	4.500
134.400	0.521	5.748	1.000	64.906	373.929	0.000	76.923	295.472	4.500
134.500	0.519	5.749	1.000	64.883	372.451	0.000	77.560	295.425	4.500
134.600	0.521	5.748	1.000	64.906	385.407	0.000	77.267	295.429	4.500
134.700	0.520	5.749	1.000	64.883	384.272	0.000	78.012	295.300	4.500
134.800	0.521	5.749	1.000	64.908	378.131	0.000	78.000	295.301	4.500
134.900	0.523	5.748	1.000	64.908	378.671	0.000	77.384	295.316	4.500
135.000	0.532	5.747	1.000	64.910	378.927	0.000	77.942	295.250	4.500
135.100	0.535	5.746	1.000	64.908	383.504	0.000	77.520	295.251	4.500
135.200	0.536	5.746	1.000	64.909	378.333	0.000	77.463	295.236	4.500
135.300	0.536	5.746	1.000	64.908	378.674	0.000	77.804	295.229	4.500
135.400	0.536	5.746	1.000	64.899	368.325	0.000	76.175	295.316	4.500
135.500	0.536	5.745	1.000	64.863	367.761	0.000	76.875	295.291	4.500
135.600	0.536	5.746	1.000	64.897	367.028	0.000	76.501	295.282	4.500
135.700	0.537	5.746	1.000	64.907	373.298	0.000	78.423	295.093	4.500
135.800	0.545	5.744	1.000	64.910	382.364	0.000	77.431	295.125	4.500
135.900	0.548	5.744	1.000	64.908	380.185	0.000	76.559	295.182	4.500
136.000	0.550	5.743	1.000	64.900	373.837	0.000	76.569	295.170	4.500
136.100	0.551	5.743	1.000	64.864	360.288	0.000	75.765	295.251	4.500
136.200	0.549	5.744	1.000	64.897	364.237	0.000	75.918	295.216	4.500
136.300	0.550	5.745	1.000	64.907	389.546	0.000	78.247	295.028	4.500
136.400	0.551	5.744	1.000	64.900	388.905	0.000	78.045	295.022	4.500
136.500	0.552	5.743	1.000	64.908	395.046	0.000	79.415	294.855	4.500
136.600	0.561	5.743	1.000	64.908	395.527	0.000	78.861	294.844	4.500
136.700	0.563	5.743	1.000	64.908	400.192	0.000	79.814	294.713	4.500
136.800	0.565	5.742	1.000	64.910	399.983	0.000	79.461	294.696	4.500
136.900	0.565	5.743	1.000	64.910	391.689	0.000	78.173	294.752	4.500
137.000	0.565	5.742	1.000	64.910	385.682	0.000	79.342	294.673	4.500
137.100	0.567	5.742	1.000	64.908	386.211	0.000	77.848	294.763	4.500
137.200	0.566	5.743	1.000	64.909	374.422	0.000	75.812	294.908	4.500
137.300	0.567	5.742	1.000	64.909	357.473	0.000	75.142	295.006	4.500
137.400	0.573	5.741	1.000	64.911	349.071	0.000	73.119	295.183	4.500
137.500	0.580	5.740	1.000	64.909	348.305	0.000	73.875	295.133	4.500
137.600	0.581	5.740	1.000	64.880	358.461	0.000	73.704	295.176	4.500
137.700	0.582	5.740	1.000	64.907	359.392	0.000	75.430	295.002	4.500
137.800	0.582	5.740	1.000	64.863	358.392	0.000	74.939	295.035	4.500
137.900	0.581	5.739	1.000	64.905	376.567	0.000	76.215	294.916	4.500
138.000	0.582	5.740	1.000	64.883	393.474	0.000	78.614	294.648	4.500
138.100	0.584	5.739	1.000	64.906	394.548	0.000	79.986	294.466	4.500
138.200	0.591	5.740	1.000	64.910	408.129	0.000	79.380	294.438	4.500
138.300	0.595	5.737	1.000	64.908	405.821	0.000	80.399	294.309	4.500
138.400	0.596	5.737	1.000	64.909	406.142	0.000	78.878	294.405	4.500
138.500	0.598	5.738	1.000	64.908	391.266	0.000	79.275	294.356	4.500
138.600	0.597	5.737	1.000	64.908	385.859	0.000	77.786	294.470	4.500
138.700	0.597	5.738	1.000	64.909	388.370	0.000	78.085	294.409	4.500
138.800	0.595	5.737	1.000	64.908	375.248	0.000	77.225	294.505	4.500
138.900	0.599	5.738	1.000	64.908	363.392	0.000	75.326	294.635	4.500
139.000	0.606	5.737	1.000	64.909	349.890	0.000	74.883	294.671	4.500
139.100	0.609	5.736	1.000	64.909	351.472	0.000	74.383	294.785	4.500
139.200	0.612	5.736	1.000	64.908	357.133	0.000	74.341	294.775	4.500
139.300	0.613	5.736	1.000	64.900	360.949	0.000	75.144	294.711	4.500
139.400	0.610	5.735	1.000	64.907	353.623	0.000	74.547	294.733	4.500
139.500	0.613	5.735	1.000	64.899	367.488	0.000	78.051	294.456	4.500
139.600	0.612	5.736	1.000	64.907	377.929	0.000	76.204	294.548	4.500
139.700	0.614	5.736	1.000	64.908	395.388	0.000	78.883	294.296	4.500
139.800	0.619	5.733	1.000	64.908	400.714	0.000	80.127	294.126	4.500
139.900	0.623	5.734	1.000	64.909	405.786	0.000	79.521	294.095	4.500
140.000	0.624	5.733	1.000	64.907	411.239	0.000	80.424	293.955	4.500
140.100	0.624	5.734	1.000	64.908	400.424	0.000	79.889	293.962	4.500
140.200	0.625	5.734	1.000	64.908	395.813	0.000	78.825	294.007	4.500
140.300	0.626	5.734	1.000	64.909	392.043	0.000	78.750	294.002	4.500
140.400	0.626	5.734	1.000	64.909	377.715	0.000	76.738	294.159	4.500
140.500	0.626	5.734	1.000	64.907	366.330	0.000	75.844	294.227	4.500
140.600	0.632	5.733	1.000	64.909	348.675	0.000	74.065	294.392	4.500
140.700	0.639	5.731	1.000	64.908	339.140	0.000	73.906	294.446	4.500
140.800	0.640	5.731	1.000	64.910	349.735	0.000	74.116	294.473	4.500
140.900	0.639	5.732	1.000	64.909	373.654	0.000	75.682	294.341	4.500
141.000	0.639	5.730	1.000	64.908	377.822	0.000	77.877	294.106	4.500
141.100	0.639	5.731	1.000	64.910	388.724	0.000	79.579	293.910	4.500
141.200	0.640	5.732	1.000	64.909	393.790	0.000	78.827	293.878	4.500
141.300	0.642	5.730	1.000	64.908	394.738	0.000	78.700	293.843	4.500
141.400	0.647	5.729	1.000	64.909	377.426	0.000	76.346	293.984	4.500
141.500	0.650	5.729	1.000	64.908	354.786	0.000	75.946	294.074	4.500
141.600	0.653	5.729	1.000	64.909	365.537	0.000	75.388	294.145	4.500
141.700	0.653	5.729	1.000	64.908	373.015	0.000	77.267	293.980	4.500
141.800	0.652	5.729	1.000	64.909	382.270	0.000	78.173	293.864	4.500
141.900	0.654	5.730	1.000	64.908	397.427	0.000	78.686	293.762	4.500
142.000	0.653	5.730	1.000	64.908	395.843	0.000	79.939	293.601	4.003
142.100	0.653	5.729	1.000	64.909	394.939	0.000	78.930	293.641	4.000
142.200	0.658	5.729	1.000	64.909	384.963	0.000	78.690	293.611	4.000
142.300	0.662	5.728	1.000	64.908	373.816	0.000	76.229	293.821	4.000
142.400	0.664	5.727	1.000	64.909	354.525	0.000	74.926	293.958	4.000
142.500	0.665	5.727	1.000	64.909	351.654	0.000	74.699	293.974	4.000
142.600	0.665	5.726	1.000	64.910	350.639	0.000	74.606	293.999	4.000
142.700	0.664	5.728	1.000	64.909	351.771	0.000	75.288	293.961	4.000
142.800	0.665	5.728	1.000	64.900	357.473	0.000	74.810	293.973	4.000
142.900	0.665	5.727	1.000	64.908	376.906	0.000	76.718	293.794	4.000
143.000	0.671	5.726	1.000	64.909	387.616	0.000	79.274	293.544	4.000
143.100	0.675	5.726	1.000	64.908	399.507	0.000	79.955	293.421	4.000
143.200	0.678	5.727	1.000	64.908	404.727	0.000	80.189	293.297	4.000
143.300	0.678	5.727	1.000	64.909	409.059	0.000	80.103	293.247	4.000
143.400	0.676	5.727	1.000	64.909	401.619	0.000	78.929	293.318	4.000
143.500	0.676	5.724	1.000	64.909	391.783	0.000	79.420	293.236	4.000
143.600	0.677	5.725	1.000	64.909	382.566	0.000	77.429	293.385	4.000
143.700	0.677	5.724	1.000	64.908	367.139	0.000	75.422	293.570	4.000
143.800	0.680	5.725	1.000	64.910	364.831	0.000	75.592	293.597	4.000
143.900	0.685	5.724	1.000	64.908	364.935	0.000	75.157	293.635	4.000
144.000	0.685	5.721	1.000	64.908	370.354	0.000	76.836	293.497	4.000
144.100	0.686	5.721	1.000	64.909	367.288	0.000	75.259	293.582	4.000
144.200	0.686	5.720	1.000	64.908	384.798	0.000	77.868	293.353	4.000
144.300	0.688	5.720	1.000	64.909	391.483	0.000	79.380	293.210	4.000
144.400	0.687	5.721	1.000	64.908	382.969	0.000	77.620	293.283	4.000
144.500	0.687	5.720	1.000	64.908	378.386	0.000	77.504	293.247	4.000
144.600	0.694	5.719	1.000	64.909	378.856	0.000	78.086	293.212	4.000
144.700	0.697	5.720	1.000	64.908	377.625	0.000	77.127	293.260	4.000
144.800	0.698	5.719	1.000	64.908	378.603	0.000	78.118	293.153	4.000
144.900	0.699	5.718	1.000	64.908	390.585	0.000	77.824	293.140	4.000
145.000	0.698	5.719	1.000	64.908	385.570	0.000	78.217	293.067	4.000
145.100	0.699	5.717	1.000	64.909	373.262	0.000	77.162	293.154	4.000
145.200	0.699	5.719	1.000	64.909	370.252	0.000	76.394	293.173	4.000
145.300	0.700	5.718	1.000	64.909	366.185	0.000	76.117	293.247	4.000
145.400	0.704	5.717	1.000	64.908	356.118	0.000	74.255	293.377	4.000
145.500	0.709	5.717	1.000	64.909	351.267	0.000	74.905	293.336	4.000
145.600	0.712	5.717	1.000	64.908	354.857	0.000	75.185	293.319	4.000
145.700	0.711	5.717	1.000	64.908	356.531	0.000	74.998	293.318	4.000
145.800	0.713	5.716	1.000	64.908	364.573	0.000	76.216	293.238	4.000
145.900	0.713	5.716	1.000	64.909	366.833	0.000	75.346	293.283	4.000
146.000	0.713	5.716	1.000	64.908	377.700	0.000	78.215	293.005	4.000
146.100	0.714	5.717	1.000	64.908	388.622	0.000	78.247	292.947	4.000
146.200	0.718	5.717	1.000	64.908	394.611	0.000	79.288	292.810	4.000
146.300	0.725	5.716	1.000	64.909	386.103	0.000	78.020	292.867	4.000
146.400	0.725	5.717	1.000	64.908	374.706	0.000	77.477	292.894	4.000
146.500	0.727	5.716	1.000	64.908	386.151	0.000	78.595	292.788	4.000
146.600	0.729	5.716	1.000	64.910	399.453	0.000	79.112	292.690	4.000
146.700	0.727	5.717	1.000	64.909	392.443	0.000	79.314	292.623	4.000
146.800	0.728	5.717	1.000	64.909	390.059	0.000	78.556	292.638	4.000
146.900	0.727	5.717	1.000	64.908	387.585	0.000	78.105	292.664	4.000
147.000	0.731	5.717	1.000	64.909	391.511	0.000	78.508	292.626	4.000
147.100	0.740	5.715	1.000	64.909	381.961	0.000	77.457	292.667	4.000
147.200	0.744	5.714	1.000	64.908	356.605	0.000	75.565	292.839	4.000
147.300	0.744	5.714	1.000	64.908	349.942	0.000	74.136	292.985	4.000
147.400	0.744	5.714	1.000	64.907	345.636	0.000	73.670	293.076	4.000
147.500	0.745	5.713	1.000	64.882	352.961	0.000	74.400	293.038	4.000
147.600	0.744	5.714	1.000	64.905	354.309	0.000	75.194	292.962	4.000
147.700	0.745	5.713	1.000	64.865	359.982	0.000	75.668	292.884	4.000
147.800	0.750	5.713	1.000	64.904	376.303	0.000	76.940	292.736	4.000
147.900	0.757	5.713	1.000	64.910	388.234	0.000	78.254	292.598	4.000
148.000	0.761	5.712	1.000	64.909	398.859	0.000	80.112	292.366	4.000
148.100	0.762	5.711	1.000	64.909	403.835	0.000	80.097	292.271	4.000
148.200	0.762	5.713	1.000	64.909	405.284	0.000	80.665	292.192	4.000
148.300	0.762	5.714	1.000	64.909	406.056	0.000	79.695	292.206	4.000
148.400	0.761	5.712	1.000	64.908	391.402	0.000	78.546	292.240	4.000
148.500	0.762	5.711	1.000	64.909	377.305	0.000	78.424	292.254	4.000
148.600	0.764	5.712	1.000	64.909	381.516	0.000	77.843	292.305	4.000
148.700	0.773	5.712	1.000	64.908	383.607	0.000	77.725	292.313	4.000
148.800	0.780	5.711	1.000	64.909	378.240	0.000	77.876	292.277	4.000
148.900	0.782	5.712	1.000	64.909	376.799	0.000	76.769	292.332	4.000
149.000	0.782	5.712	1.000	64.909	373.779	0.000	76.517	292.371	4.000
149.100	0.781	5.712	1.000	64.908	359.863	0.000	74.724	292.512	4.000
149.200	0.782	5.713	1.000	64.909	351.550	0.000	74.724	292.522	4.000
149.300	0.782	5.714	1.000	64.909	356.644	0.000	75.197	292.508	4.000
149.400	0.788	5.711	1.000	64.909	367.588	0.000	76.456	292.393	4.000
149.500	0.797	5.711	1.000	64.909	387.621	0.000	78.594	292.204	4.000
149.600	0.801	5.709	1.000	64.909	393.544	0.000	79.377	292.032	4.000
149.700	0.801	5.710	1.000	64.909	401.846	0.000	79.781	291.913	4.000
149.800	0.801	5.710	1.000	64.909	400.807	0.000	80.253	291.828	4.000
149.900	0.801	5.710	1.000	64.909	396.590	0.000	78.201	291.971	4.000
150.000	0.802	5.710	1.000	64.909	387.001	0.000	78.864	291.914	4.000
150.100	0.802	5.709	1.000	64.908	369.162	0.000	76.315	292.086	4.000
150.200	0.803	5.710	1.000	64.910	361.870	0.000	75.408	292.180	4.000
150.300	0.813	5.710	1.000	64.908	354.475	0.000	74.368	292.293	4.000
150.400	0.820	5.708	1.000	64.909	349.122	0.000	73.735	292.371	4.000
150.500	0.821	5.708	1.000	64.909	353.357	0.000	75.507	292.245	4.000
150.600	0.820	5.710	1.000	64.910	364.481	0.000	76.147	292.157	4.000
150.700	0.821	5.708	1.000	64.908	393.741	0.000	78.032	291.938	4.000
150.800	0.821	5.709	1.000	64.909	402.207	0.000	79.883	291.739	4.000
150.900	0.821	5.708	1.000	64.908	400.196	0.000	79.911	291.654	4.000
151.000	0.826	5.708	1.000	64.909	408.291	0.000	80.300	291.540	4.000
151.100	0.836	5.707	1.000	64.908	400.929	0.000	79.261	291.627	4.000
151.200	0.840	5.707	1.000	64.908	387.585	0.000	78.543	291.626	4.000
151.300	0.840	5.707	1.000	64.908	360.965	0.000	76.350	291.830	4.000
151.400	0.841	5.705	1.000	64.909	351.322	0.000	74.250	292.028	4.000
151.500	0.841	5.707	1.000	64.909	350.462	0.000	74.661	292.026	4.000
151.600	0.842	5.707	1.000	64.910	361.174	0.000	75.390	291.979	4.000
151.700	0.840	5.704	1.000	64.908	357.849	0.000	74.587	291.997	4.000
151.800	0.843	5.705	1.000	64.908	359.935	0.000	76.020	291.902	4.000
151.900	0.852	5.704	1.000	64.909	370.898	0.000	76.561	291.835	4.000
152.000	0.859	5.704	1.000	64.908	382.797	0.000	78.758	291.609	4.000
152.100	0.860	5.703	1.000	64.908	402.753	0.000	79.987	291.445	4.000
152.200	0.859	5.703	1.000	64.909	397.703	0.000	80.297	291.351	4.000
152.300	0.860	5.704	1.000	64.908	395.541	0.000	79.935	291.315	4.000
152.400	0.861	5.704	1.000	64.910	397.865	0.000	79.089	291.345	4.000
152.500	0.860	5.704	1.000	64.908	394.645	0.000	79.163	291.300	4.000
152.600	0.864	5.703	1.000	64.908	390.979	0.000	79.230	291.292	4.000
152.700	0.874	5.700	1.000	64.908	389.713	0.000	78.441	291.316	4.000
152.800	0.878	5.700	1.000	64.910	391.379	0.000	78.227	291.309	4.000
152.900	0.879	5.700	1.000	64.909	371.253	0.000	75.782	291.502	4.000
153.000	0.879	5.700	1.000	64.908	354.354	0.000	75.527	291.554	4.000
153.100	0.879	5.698	1.000	64.909	354.856	0.000	74.946	291.611	4.000
153.200	0.879	5.698	1.000	64.909	358.990	0.000	74.876	291.618	4.000
153.300	0.879	5.699	1.000	64.908	379.119	0.000	76.850	291.487	4.000
153.400	0.880	5.700	1.000	64.908	385.977	0.000	78.556	291.289	4.000
153.500	0.889	5.698	1.000	64.908	392.459	0.000	79.488	291.155	4.000
153.600	0.895	5.698	1.000	64.908	397.129	0.000	79.310	291.098	4.000
153.700	0.897	5.698	1.000	64.910	402.300	0.000	79.675	291.006	4.000
153.800	0.898	5.696	1.000	64.909	393.637	0.000	79.044	291.023	4.000
153.900	0.897	5.698	1.000	64.909	383.494	0.000	78.121	291.046	4.000
154.000	0.898	5.698	1.000	64.908	381.063	0.000	77.265	291.115	3.516
154.100	0.899	5.698	1.000	64.911	366.078	0.000	75.215	291.310	3.500
154.200	0.901	5.698	1.000	64.909	347.565	0.000	74.168	291.410	3.500
154.300	0.911	5.694	1.000	64.909	344.093	0.000	74.063	291.448	3.500
154.400	0.917	5.694	1.000	64.908	350.060	0.000	74.354	291.444	3.500
154.500	0.917	5.692	1.000	64.908	359.001	0.000	75.438	291.358	3.500
154.600	0.918	5.693	1.000	64.908	357.370	0.000	75.274	291.340	3.500
154.700	0.918	5.692	1.000	64.907	367.187	0.000	76.757	291.200	3.500
154.800	0.917	5.693	1.000	64.909	387.580	0.000	77.541	291.063	3.500
154.900	0.918	5.692	1.000	64.910	394.688	0.000	79.034	290.877	3.500
155.000	0.918	5.692	1.000	64.908	404.798	0.000	81.085	290.634	3.500
155.100	0.928	5.691	1.000	64.908	404.070	0.000	80.619	290.592	3.500
155.200	0.933	5.690	1.000	64.908	401.125	0.000	78.662	290.673	3.500
155.300	0.937	5.690	1.000	64.907	381.652	0.000	77.809	290.764	3.500
155.400	0.937	5.688	1.000	64.908	368.467	0.000	76.452	290.885	3.500
155.500	0.937	5.689	1.000	64.908	367.925	0.000	76.878	290.879	3.500
155.600	0.936	5.690	1.000	64.908	368.741	0.000	76.511	290.891	3.500
155.700	0.936	5.690	1.000	64.909	372.715	0.000	76.974	290.837	3.500
155.800	0.938	5.689	1.000	64.910	363.231	0.000	75.878	290.914	3.500
155.900	0.947	5.688	1.000	64.909	360.324	0.000	75.187	290.957	3.500
156.000	0.950	5.687	1.000	64.909	365.648	0.000	75.746	290.897	3.500
156.100	0.952	5.688	1.000	64.909	362.477	0.000	75.501	290.900	3.500
156.200	0.952	5.686	1.000	64.909	369.750	0.000	75.948	290.867	3.500
156.300	0.954	5.688	1.000	64.909	370.279	0.000	78.222	290.695	3.500
156.400	0.954	5.687	1.000	64.909	392.236	0.000	78.344	290.621	3.500
156.500	0.954	5.685	1.000	64.908	407.652	0.000	80.300	290.407	3.500
156.600	0.955	5.685	1.000	64.909	408.568	0.000	80.342	290.311	3.500
156.700	0.959	5.686	1.000	64.909	408.508	0.000	81.134	290.167	3.500
156.800	0.968	5.684	1.000	64.908	400.163	0.000	79.950	290.218	3.500
156.900	0.970	5.682	1.000	64.908	386.503	0.000	77.678	290.396	3.500
157.000	0.970	5.683	1.000	64.910	371.876	0.000	76.350	290.494	3.500
157.100	0.970	5.683	1.000	64.908	346.214	0.000	74.758	290.671	3.500
157.200	0.972	5.684	1.000	64.908	344.090	0.000	73.982	290.763	3.500
157.300	0.972	5.684	1.000	64.908	353.284	0.000	75.321	290.695	3.500
157.400	0.972	5.682	1.000	64.908	359.185	0.000	75.290	290.683	3.500
157.500	0.986	5.681	1.000	64.909	359.473	0.000	76.402	290.574	3.500
157.600	0.990	5.681	1.000	64.908	386.541	0.000	77.780	290.425	3.500
157.700	0.992	5.681	1.000	64.909	397.089	0.000	79.454	290.204	3.500
157.800	0.993	5.681	1.000	64.908	405.648	0.000	80.680	290.030	3.500
157.900	0.993	5.682	1.000	64.909	398.027	0.000	80.261	289.989	3.500
158.000	0.994	5.681	1.000	64.908	399.742	0.000	79.979	289.933	3.500
158.100	0.992	5.680	1.000	64.908	390.320	0.000	78.607	290.035	3.500
158.200	0.993	5.683	1.000	64.908	369.817	0.000	76.041	290.243	3.500
158.300	1.001	5.679	1.000	64.910	361.638	0.000	75.577	290.297	3.500
158.400	1.009	5.676	1.000	64.909	353.112	0.000	75.108	290.377	3.500
158.500	1.012	5.677	1.000	64.908	351.867	0.000	74.727	290.413	3.500
158.600	1.014	5.677	1.000	64.908	361.795	0.000	75.434	290.371	3.500
158.700	1.013	5.677	1.000	64.909	377.367	0.000	77.492	290.177	3.500
158.800	1.014	5.677	1.000	64.910	383.894	0.000	78.691	290.027	3.500
158.900	1.015	5.676	1.000	64.909	400.212	0.000	80.029	289.849	3.500
159.000	1.013	5.676	1.000	64.908	411.025	0.000	81.375	289.657	3.500
159.100	1.024	5.674	1.000	64.909	401.234	0.000	81.061	289.588	3.500
159.200	1.032	5.672	1.000	64.910	391.285	0.000	79.099	289.701	3.500
159.300	1.035	5.672	1.000	64.909	377.241	0.000	77.105	289.844	3.500
159.400	1.035	5.674	1.000	64.908	364.155	0.000	75.186	290.033	3.500
159.500	1.035	5.672	1.000	64.908	359.373	0.000	74.634	290.107	3.500
159.600	1.035	5.674	1.000	64.909	353.107	0.000	74.216	290.180	3.500
159.700	1.035	5.672	1.000	64.909	349.639	0.000	74.217	290.228	3.500
159.800	1.035	5.672	1.000	64.908	363.868	0.000	74.724	290.167	3.500
159.900	1.042	5.670	1.000	64.908	380.449	0.000	76.775	289.983	3.500
160.000	1.050	5.668	1.000	64.908	391.526	0.000	78.831	289.762	3.500
160.100	1.054	5.668	1.000	64.907	401.526	0.000	79.014	289.649	3.500
160.200	1.054	5.667	1.000	64.909	406.045	0.000	78.712	289.619	3.500
160.300	1.054	5.668	1.000	64.908	393.055	0.000	77.511	289.684	3.500
160.400	1.054	5.668	1.000	64.909	372.770	0.000	75.358	289.826	3.500
160.500	1.055	5.667	1.000	64.909	360.950	0.000	75.886	289.833	3.500
160.600	1.055	5.668	1.000	64.908	360.551	0.000	73.641	290.000	3.500
160.700	1.064	5.665	1.000	64.910	354.096	0.000	73.938	290.023	3.500
160.800	1.073	5.663	1.000	64.909	358.852	0.000	74.095	290.013	3.500
160.900	1.074	5.664	1.000	64.908	362.305	0.000	74.515	289.984	3.500
161.000	1.077	5.664	1.000	64.907	392.728	0.000	77.291	289.730	3.500
161.100	1.077	5.665	1.000	64.909	400.597	0.000	78.360	289.568	3.500
161.200	1.076	5.665	1.000	64.908	399.756	0.000	78.721	289.447	3.500
161.300	1.075	5.665	1.000	64.909	406.844	0.000	79.477	289.345	3.500
161.400	1.077	5.665	1.000	64.908	401.108	0.000	78.137	289.398	3.500
161.500	1.082	5.662	1.000	64.909	395.147	0.000	78.020	289.380	3.500
161.600	1.092	5.659	1.000	64.909	384.733	0.000	77.139	289.429	3.500
161.700	1.097	5.661	1.000	64.907	383.932	0.000	76.866	289.444	3.500
161.800	1.096	5.660	1.000	64.908	379.213	0.000	76.361	289.482	3.500
161.900	1.097	5.659	1.000	64.908	381.714	0.000	75.786	289.523	3.500
162.000	1.097	5.658	1.000	64.910	369.655	0.000	75.605	289.522	3.500
162.100	1.098	5.659	1.000	64.909	359.823	0.000	74.255	289.628	3.500
162.200	1.099	5.659	1.000	64.908	352.899	0.000	73.019	289.721	3.500
162.300	1.104	5.659	1.000	64.908	346.339	0.000	72.542	289.803	3.500
162.400	1.112	5.655	1.000	64.908	345.380	0.000	72.454	289.842	3.500
162.500	1.113	5.655	1.000	64.910	361.503	0.000	74.439	289.692	3.500
162.600	1.116	5.654	1.000	64.909	373.727	0.000	75.830	289.561	3.500
162.700	1.113	5.655	1.000	64.908	388.616	0.000	76.985	289.407	3.500
162.800	1.114	5.655	1.000	64.909	386.425	0.000	76.682	289.365	3.500
162.900	1.114	5.654	1.000	64.908	377.949	0.000	75.566	289.396	3.500
163.000	1.113	5.655	1.000	64.909	368.399	0.000	74.744	289.445	3.500
163.100	1.117	5.654	1.000	64.909	359.780	0.000	73.642	289.554	3.500
163.200	1.125	5.652	1.000	64.908	361.658	0.000	73.132	289.598	3.500
163.300	1.130	5.649	1.000	64.908	369.424	0.000	75.509	289.398	3.500
163.400	1.129	5.648	1.000	64.908	392.101	0.000	76.545	289.277	3.500
163.500	1.132	5.649	1.000	64.909	405.483	0.000	77.500	289.131	3.500
163.600	1.132	5.647	1.000	64.910	398.844	0.000	76.824	289.136	3.500
163.700	1.132	5.648	1.000	64.909	378.803	0.000	76.003	289.163	3.500
163.800	1.132	5.648	1.000	64.908	367.267	0.000	74.438	289.312	3.500
163.900	1.138	5.646	1.000	64.909	361.945	0.000	72.852	289.447	3.500
164.000	1.147	5.646	1.000	64.908	374.766	0.000	73.490	289.424	3.500
164.100	1.149	5.643	1.000	64.908	380.766	0.000	74.852	289.309	3.500
164.200	1.150	5.644	1.000	64.910	397.491	0.000	77.220	289.057	3.500
164.300	1.150	5.646	1.000	64.910	408.086	0.000	77.888	288.941	3.500
164.400	1.151	5.644	1.000	64.908	402.124	0.000	77.022	288.914	3.500
164.500	1.151	5.645	1.000	64.908	385.806	0.000	75.464	288.990	3.500
164.600	1.151	5.645	1.000	64.909	368.605	0.000	73.787	289.159	3.500
164.700	1.152	5.641	1.000	64.908	361.731	0.000	72.846	289.276	3.500
164.800	1.162	5.639	1.000	64.909	352.039	0.000	72.116	289.366	3.500
164.900	1.165	5.639	1.000	64.909	350.585	0.000	71.956	289.411	3.500
165.000	1.167	5.638	1.000	64.909	366.761	0.000	74.083	289.246	3.500
165.100	1.166	5.639	1.000	64.910	383.467	0.000	74.569	289.140	3.500
165.200	1.167	5.636	1.000	64.908	394.394	0.000	76.368	288.932	3.500
165.300	1.167	5.637	1.000	64.908	404.838	0.000	77.785	288.759	3.500
165.400	1.166	5.639	1.000	64.908	412.296	0.000	77.759	288.657	3.500
165.500	1.173	5.636	1.000	64.908	392.777	0.000	76.821	288.700	3.500
165.600	1.180	5.635	1.000	64.909	392.661	0.000	76.026	288.737	3.500
165.700	1.184	5.634	1.000	64.908	375.344	0.000	73.405	288.934	3.500
165.800	1.184	5.633	1.000	64.908	357.253	0.000	72.518	289.040	3.500
165.900	1.184	5.634	1.000	64.909	353.972	0.000	71.686	289.137	3.500
166.000	1.186	5.632	1.000	64.910	351.484	0.000	71.846	289.171	3.500
166.100	1.184	5.632	1.000	64.908	353.369	0.000	71.277	289.216	3.500
166.200	1.186	5.633	1.000	64.909	351.784	0.000	72.663	289.124	3.500
166.300	1.187	5.633	1.000	64.908	359.535	0.000	72.614	289.089	3.500
166.400	1.194	5.632	1.000	64.909	369.322	0.000	72.739	289.051	3.500
166.500	1.199	5.630	1.000	64.909	370.195	0.000	73.942	288.945	3.500
166.600	1.201	5.629	1.000	64.909	370.151	0.000	74.478	288.844	3.500
166.700	1.201	5.629	1.000	64.908	386.402	0.000	75.878	288.695	3.500
166.800	1.201	5.629	1.000	64.909	401.980	0.000	77.265	288.558	3.500
166.900	1.202	5.629	1.000	64.909	405.909	0.000	77.255	288.452	3.500
167.000	1.201	5.629	1.000	64.909	393.883	0.000	77.239	288.409	3.058
167.100	1.205	5.626	1.000	64.908	394.564	0.000	76.122	288.441	3.000
167.200	1.216	5.626	1.000	64.907	384.596	0.000	74.803	288.503	3.000
167.300	1.218	5.624	1.000	64.908	362.968	0.000	72.989	288.700	3.000
167.400	1.219	5.626	1.000	64.908	352.675	0.000	71.421	288.837	3.000
167.500	1.221	5.625	1.000	64.908	350.554	0.000	71.792	288.872	3.000
167.600	1.221	5.626	1.000	64.908	360.992	0.000	72.145	288.822	3.000
167.700	1.220	5.624	1.000	64.908	374.817	0.000	74.088	288.646	3.000
167.800	1.221	5.624	1.000	64.909	387.815	0.000	76.164	288.412	3.000
167.900	1.223	5.625	1.000	64.908	395.866	0.000	76.178	288.360	3.000
168.000	1.229	5.623	1.000	64.908	395.359	0.000	76.610	288.277	3.000
168.100	1.235	5.623	1.000	64.908	385.627	0.000	74.585	288.361	3.000
168.200	1.236	5.623	1.000	64.908	369.007	0.000	73.864	288.425	3.000
168.300	1.237	5.623	1.000	64.908	368.177	0.000	74.057	288.442	3.000
168.400	1.236	5.622	1.000	64.909	373.160	0.000	73.091	288.518	3.000
168.500	1.237	5.622	1.000	64.908	376.260	0.000	74.426	288.395	3.000
168.600	1.239	5.624	1.000	64.909	372.634	0.000	73.747	288.415	3.000
168.700	1.241	5.621	1.000	64.908	364.993	0.000	72.530	288.501	3.000
168.800	1.250	5.619	1.000	64.908	360.906	0.000	72.780	288.494	3.000
168.900	1.255	5.616	1.000	64.909	369.534	0.000	73.460	288.453	3.000
169.000	1.254	5.617	1.000	64.908	377.445	0.000	74.986	288.285	3.000
169.100	1.255	5.617	1.000	64.909	397.871	0.000	75.775	288.154	3.000
169.200	1.256	5.616	1.000	64.908	412.033	0.000	76.837	288.012	3.000
169.300	1.255	5.618	1.000	64.909	405.600	0.000	76.889	287.927	3.000
169.400	1.256	5.617	1.000	64.909	392.554	0.000	76.134	287.960	3.000
169.500	1.255	5.617	1.000	64.908	387.923	0.000	76.183	287.899	3.000
169.600	1.261	5.615	1.000	64.909	384.361	0.000	75.034	287.992	3.000
169.700	1.265	5.613	1.000	64.909	381.232	0.000	74.301	288.041	3.000
169.800	1.267	5.612	1.000	64.909	376.849	0.000	73.327	288.110	3.000
169.900	1.266	5.613	1.000	64.908	356.601	0.000	72.403	288.201	3.000
170.000	1.267	5.613	1.000	64.908	355.356	0.000	72.234	288.228	3.000
170.100	1.267	5.613	1.000	64.908	361.972	0.000	72.714	288.204	3.000
170.200	1.266	5.613	1.000	64.908	357.646	0.000	72.090	288.221	3.000
170.300	1.268	5.613	1.000	64.909	352.325	0.000	72.018	288.259	3.000
170.400	1.274	5.611	1.000	64.908	349.776	0.000	70.938	288.349	3.000
170.500	1.275	5.608	1.000	64.909	353.361	0.000	72.091	288.266	3.000
170.600	1.276	5.607	1.000	64.908	368.837	0.000	73.903	288.081	3.000
170.700	1.277	5.607	1.000	64.908	382.380	0.000	75.376	287.887	3.000
170.800	1.278	5.609	1.000	64.909	389.054	0.000	75.996	287.782	3.000
170.900	1.277	5.608	1.000	64.909	394.714	0.000	76.394	287.672	3.000
171.000	1.278	5.609	1.000	64.908	395.295	0.000	77.007	287.598	3.000
171.100	1.277	5.608	1.000	64.909	395.377	0.000	76.169	287.604	3.000
171.200	1.279	5.607	1.000	64.908	390.067	0.000	76.018	287.597	3.000
171.300	1.281	5.604	1.000	64.908	389.885	0.000	75.739	287.582	3.000
171.400	1.282	5.605	1.000	64.908	386.382	0.000	74.911	287.622	3.000
171.500	1.284	5.605	1.000	64.908	376.519	0.000	74.388	287.650	3.000
171.600	1.284	5.602	1.000	64.908	378.420	0.000	74.832	287.629	3.000
171.700	1.284	5.602	1.000	64.907	378.922	0.000	73.999	287.665	3.000
171.800	1.284	5.605	1.000	64.908	376.551	0.000	73.895	287.630	3.000
171.900	1.283	5.603	1.000	64.909	375.610	0.000	73.623	287.646	3.000
172.000	1.287	5.600	1.000	64.909	365.219	0.000	72.929	287.707	3.000
172.100	1.287	5.600	1.000	64.909	358.822	0.000	71.980	287.802	3.000
172.200	1.290	5.600	1.000	64.908	350.071	0.000	71.117	287.854	3.000
172.300	1.291	5.600	1.000	64.907	348.264	0.000	71.175	287.887	3.000
172.400	1.289	5.600	1.000	64.908	354.101	0.000	72.137	287.818	3.000
172.500	1.291	5.600	1.000	64.909	371.713	0.000	74.363	287.635	3.000
172.600	1.291	5.600	1.000	64.908	393.151	0.000	75.774	287.421	3.000
172.700	1.291	5.600	1.000	64.908	397.146	0.000	75.633	287.329	3.000
172.800	1.294	5.599	1.000	64.909	375.623	0.000	74.765	287.362	3.000
172.900	1.295	5.598	1.000	64.908	370.960	0.000	73.631	287.434	3.000
173.000	1.297	5.598	1.000	64.910	374.958	0.000	74.189	287.409	3.000
173.100	1.296	5.598	1.000	64.910	375.403	0.000	73.680	287.422	3.000
173.200	1.295	5.598	1.000	64.908	375.744	0.000	74.785	287.310	3.000
173.300	1.297	5.597	1.000	64.909	376.637	0.000	74.419	287.295	3.000
173.400	1.295	5.597	1.000	64.908	380.577	0.000	72.783	287.423	3.000
173.500	1.295	5.600	1.000	64.909	385.822	0.000	73.747	287.347	3.000
173.600	1.299	5.596	1.000	64.909	379.696	0.000	73.198	287.376	3.000
173.700	1.300	5.596	1.000	64.910	379.753	0.000	72.906	287.380	3.000
173.800	1.300	5.595	1.000	64.908	387.509	0.000	73.054	287.339	3.000
173.900	1.301	5.595	1.000	64.909	386.370	0.000	73.279	287.322	3.000
174.000	1.300	5.595	1.000	64.910	375.740	0.000	72.831	287.325	3.000
174.100	1.300	5.595	1.000	64.908	372.456	0.000	72.701	287.340	3.000
174.200	1.300	5.596	1.000	64.908	371.184	0.000	72.642	287.337	3.000
174.300	1.301	5.595	1.000	64.909	375.162	0.000	72.216	287.344	3.000
174.400	1.302	5.594	1.000	64.909	373.910	0.000	72.209	287.330	3.000
174.500	1.304	5.593	1.000	64.908	373.158	0.000	72.735	287.281	3.000
174.600	1.305	5.592	1.000	64.910	373.562	0.000	72.273	287.293	3.000
174.700	1.304	5.593	1.000	64.908	378.452	0.000	72.476	287.251	3.000
174.800	1.305	5.594	1.000	64.908	377.874	0.000	73.111	287.189	3.000
174.900	1.304	5.594	1.000	64.908	375.024	0.000	72.294	287.230	3.000
175.000	1.307	5.593	1.000	64.908	373.447	0.000	72.335	287.211	3.000
175.100	1.306	5.594	1.000	64.909	370.558	0.000	71.944	287.227	3.000
175.200	1.305	5.594	1.000	64.908	371.962	0.000	72.063	287.207	3.000
175.300	1.307	5.591	1.000	64.907	369.173	0.000	72.178	287.194	3.000
175.400	1.307	5.594	1.000	64.908	368.465	0.000	72.034	287.175	3.000
175.500	1.307	5.591	1.000	64.909	374.766	0.000	72.355	287.133	3.000
175.600	1.307	5.591	1.000	64.908	365.534	0.000	71.911	287.156	3.000
175.700	1.307	5.591	1.000	64.908	367.713	0.000	72.830	287.062	3.000
175.800	1.307	5.589	1.000	64.909	370.865	0.000	72.341	287.057	3.000
175.900	1.307	5.591	1.000	64.907	370.163	0.000	72.193	287.069	3.000
176.000	1.309	5.591	1.000	64.908	367.825	0.000	72.392	287.006	3.000
176.100	1.311	5.592	1.000	64.908	365.242	0.000	72.468	286.981	3.000
176.200	1.313	5.592	1.000	64.907	368.926	0.000	71.967	286.995	3.000
176.300	1.313	5.591	1.000	64.907	373.072	0.000	72.284	286.970	3.000
176.400	1.315	5.591	1.000	64.882	370.394	0.000	71.587	287.016	3.000
176.500	1.314	5.592	1.000	64.905	368.201	0.000	72.717	286.912	3.000
176.600	1.313	5.590	1.000	64.909	370.922	0.000	72.043	286.906	3.000
176.700	1.313	5.591	1.000	64.907	370.106	0.000	71.922	286.913	3.000
176.800	1.313	5.591	1.000	64.863	370.067	0.000	72.145	286.884	3.000
176.900	1.316	5.590	1.000	64.903	372.097	0.000	72.274	286.857	3.000
177.000	1.318	5.592	1.000	64.863	368.527	0.000	72.432	286.804	3.000
177.100	1.317	5.593	1.000	64.877	372.819	0.000	72.289	286.790	3.000
177.200	1.318	5.590	1.000	64.860	375.094	0.000	72.201	286.768	3.000
177.300	1.318	5.591	1.000	64.877	368.991	0.000	72.375	286.749	3.000
177.400	1.317	5.591	1.000	64.863	367.740	0.000	71.953	286.769	3.000
177.500	1.317	5.591	1.000	64.878	371.805	0.000	72.198	286.741	3.000
177.600	1.319	5.590	1.000	64.858	373.081	0.000	72.197	286.710	3.000
177.700	1.324	5.591	1.000	64.857	367.651	0.000	72.728	286.653	3.000
177.800	1.326	5.590	1.000	64.859	372.526	0.000	72.238	286.664	3.000
177.900	1.326	5.592	1.000	64.857	368.631	0.000	71.956	286.651	3.000
178.000	1.326	5.591	1.000	64.861	372.416	0.000	72.590	286.582	3.000
178.100	1.326	5.591	1.000	64.861	372.301	0.000	72.577	286.548	3.000
178.200	1.326	5.592	1.000	64.860	369.119	0.000	71.592	286.588	3.000
178.300	1.326	5.590	1.000	64.860	363.175	0.000	71.826	286.585	3.000
178.400	1.329	5.592	1.000	64.861	372.114	0.000	71.815	286.566	3.000
178.500	1.332	5.591	1.000	64.860	372.266	0.000	71.988	286.546	3.000
178.600	1.332	5.591	1.000	64.858	369.182	0.000	72.033	286.523	3.000
178.700	1.333	5.591	1.000	64.859	372.933	0.000	72.197	286.481	3.000
178.800	1.332	5.591	1.000	64.858	373.261	0.000	72.182	286.461	3.000
178.900	1.333	5.591	1.000	64.857	367.676	0.000	71.965	286.475	3.000
179.000	1.332	5.591	1.000	64.860	369.766	0.000	72.226	286.420	3.000
179.100	1.333	5.591	1.000	64.858	370.916	0.000	72.327	286.413	3.000
179.200	1.334	5.591	1.000	64.859	378.006	0.000	72.366	286.362	3.000
179.300	1.338	5.592	1.000	64.857	377.770	0.000	72.956	286.286	3.000
179.400	1.339	5.592	1.000	64.859	378.819	0.000	72.934	286.263	3.000
179.500	1.339	5.590	1.000	64.861	381.536	0.000	73.701	286.159	3.000
179.600	1.339	5.590	1.000	64.858	380.985	0.000	72.890	286.183	3.000
179.700	1.338	5.592	1.000	64.858	380.889	0.000	72.919	286.151	3.000
179.800	1.339	5.591	1.000	64.859	379.046	0.000	73.534	286.088	3.000
179.900	1.339	5.589	1.000	64.860	381.775	0.000	73.251	286.079	3.000
180.000	1.340	5.590	1.000	64.859	385.801	0.000	72.989	286.061	2.514
180.100	1.343	5.591	1.000	64.859	381.602	0.000	73.027	286.039	2.500
180.200	1.344	5.591	1.000	64.859	372.082	0.000	72.712	286.047	2.500
180.300	1.346	5.591	1.000	64.858	376.039	0.000	72.796	286.023	2.500
180.400	1.346	5.591	1.000	64.859	380.576	0.000	73.067	285.966	2.500
180.500	1.346	5.591	1.000	64.858	385.837	0.000	73.798	285.916	2.500
180.600	1.346	5.592	1.000	64.860	377.756	0.000	72.910	285.931	2.500
180.700	1.346	5.592	1.000	64.859	376.983	0.000	72.895	285.928	2.500
180.800	1.346	5.592	1.000	64.879	383.506	0.000	73.381	285.857	2.500
180.900	1.349	5.591	1.000	64.861	382.167	0.000	73.367	285.818	2.500
181.000	1.349	5.592	1.000	64.859	369.273	0.000	72.746	285.826	2.500
181.100	1.350	5.590	1.000	64.859	377.546	0.000	73.025	285.820	2.500
181.200	1.349	5.590	1.000	64.859	379.047	0.000	73.026	285.794	2.500
181.300	1.351	5.591	1.000	64.859	378.824	0.000	72.706	285.785	2.500
181.400	1.349	5.590	1.000	64.861	375.974	0.000	73.232	285.723	2.500
181.500	1.349	5.591	1.000	64.860	378.421	0.000	73.062	285.701	2.500
181.600	1.352	5.591	1.000	64.859	378.983	0.000	73.053	285.692	2.500
181.700	1.354	5.592	1.000	64.857	378.621	0.000	72.753	285.691	2.500
181.800	1.355	5.592	1.000	64.859	377.926	0.000	72.718	285.662	2.500
181.900	1.355	5.591	1.000	64.861	376.562	0.000	73.164	285.616	2.500
182.000	1.355	5.591	1.000	64.895	383.424	0.000	73.480	285.570	2.500
182.100	1.356	5.591	1.000	64.864	390.762	0.000	73.888	285.498	2.500
182.200	1.356	5.592	1.000	64.860	386.777	0.000	73.694	285.483	2.500
182.300	1.356	5.591	1.000	64.903	383.482	0.000	73.421	285.460	2.500
182.400	1.356	5.592	1.000	64.900	388.081	0.000	74.314	285.367	2.500
182.500	1.359	5.594	1.000	64.907	386.367	0.000	73.732	285.368	2.500
182.600	1.362	5.594	1.000	64.865	383.299	0.000	73.665	285.362	2.500
182.700	1.361	5.593	1.000	64.901	379.296	0.000	73.423	285.387	2.500
182.800	1.364	5.594	1.000	64.899	379.064	0.000	72.819	285.392	2.500
182.900	1.363	5.594	1.000	64.906	388.315	0.000	73.613	285.327	2.500
183.000	1.362	5.594	1.000	64.864	384.860	0.000	73.163	285.330	2.500
183.100	1.363	5.593	1.000	64.903	379.245	0.000	73.659	285.268	2.500
183.200	1.366	5.594	1.000	64.908	381.915	0.000	73.944	285.217	2.500
183.300	1.371	5.594	1.000	64.908	385.717	0.000	73.395	285.214	2.500
183.400	1.372	5.595	1.000	64.907	381.578	0.000	73.095	285.214	2.500
183.500	1.372	5.596	1.000	64.908	380.845	0.000	74.055	285.120	2.500
183.600	1.372	5.595	1.000	64.908	384.535	0.000	73.391	285.138	2.500
183.700	1.373	5.595	1.000	64.909	386.089	0.000	73.666	285.096	2.500
183.800	1.372	5.596	1.000	64.909	381.731	0.000	73.535	285.096	2.500
183.900	1.372	5.594	1.000	64.907	380.794	0.000	73.606	285.028	2.500
184.000	1.372	5.595	1.000	64.907	379.003	0.000	73.060	285.072	2.500
184.100	1.379	5.595	1.000	64.862	373.970	0.000	71.727	285.134	2.500
184.200	1.382	5.595	1.000	64.772	220.488	0.000	44.680	286.987	2.500
184.300	1.384	5.595	1.000	64.722	-46.597	0.000	24.870	289.525	2.500
184.400	1.385	5.596	1.000	64.627	-119.721	0.000	18.304	290.916	2.500
184.500	1.385	5.595	1.000	64.572	-143.275	0.000	14.827	291.859	2.500
184.600	1.385	5.596	1.000	64.481	-160.037	0.000	15.244	292.361	2.500
184.700	1.385	5.594	1.000	64.427	-154.630	0.000	15.147	292.551	2.500
184.800	1.385	5.594	1.000	64.337	-157.135	0.000	14.693	292.861	2.500
184.900	1.390	5.596	1.000	64.281	-153.426	0.000	14.858	293.084	2.500
185.000	1.391	5.596	1.000	64.188	-156.874	0.000	14.650	293.249	2.500
185.100	1.394	5.594	1.000	64.134	-169.006	0.000	14.321	293.442	2.500
185.200	1.393	5.594	1.000	64.042	-163.637	0.000	14.004	293.605	2.500
185.300	1.394	5.596	1.000	63.985	-160.039	0.000	14.260	293.699	2.500
185.400	1.394	5.595	1.000	63.891	-166.426	0.000	14.061	293.810	2.500
185.500	1.394	5.595	1.000	63.839	-168.941	0.000	13.946	293.912	2.500
185.600	1.394	5.596	1.000	63.789	-172.115	0.000	12.947	294.094	2.500
185.700	1.399	5.597	1.000	63.695	-159.839	0.000	14.710	294.028	2.500
185.800	1.402	5.597	1.000	63.643	-162.490	0.000	13.489	294.166	2.500
185.900	1.404	5.597	1.000	63.552	-169.599	0.000	14.129	294.198	2.500
186.000	1.404	5.598	1.000	63.497	-161.612	0.000	14.152	294.244	2.500
186.100	1.403	5.597	1.000	63.449	-154.031	0.000	14.163	294.292	2.500
186.200	1.404	5.597	1.000	63.356	-161.754	0.000	14.057	294.358	2.500
186.300	1.404	5.598	1.000	63.300	-169.515	0.000	13.986	294.403	2.500
186.400	1.404	5.597	1.000	63.207	-168.417	0.000	13.665	294.494	2.500
186.500	1.408	5.598	1.000	63.154	-157.870	0.000	13.966	294.531	2.500
186.600	1.409	5.598	1.000	63.064	-159.993	0.000	13.373	294.611	2.500
186.700	1.410	5.597	1.000	63.010	-168.284	0.000	13.885	294.637	2.500
186.800	1.410	5.596	1.000	62.916	-165.646	0.000	13.841	294.656	2.500
186.900	1.410	5.597	1.000	62.863	-164.078	0.000	13.460	294.717	2.500
187.000	1.410	5.597	1.000	62.813	-162.053	0.000	13.864	294.730	2.500
187.100	1.409	5.597	1.000	62.720	-162.686	0.000	14.004	294.761	2.500
187.200	1.410	5.598	1.000	62.666	-163.888	0.000	13.347	294.854	2.500
187.300	1.412	5.598	1.000	62.575	-161.059	0.000	12.958	294.918	2.500
187.400	1.417	5.600	1.000	62.518	-171.320	0.000	13.343	294.969	2.500
187.500	1.417	5.600	1.000	62.423	-163.910	0.000	13.962	294.953	2.500
187.600	1.417	5.600	1.000	62.367	-160.130	0.000	13.764	294.978	2.500
187.700	1.417	5.600	1.000	62.277	-161.677	0.000	13.535	295.016	2.500
187.800	1.417	5.598	1.000	62.221	-168.414	0.000	13.743	295.044	2.500
187.900	1.417	5.600	1.000	62.170	-161.638	0.000	13.494	295.090	2.500
188.000	1.417	5.600	1.000	62.078	-156.977	0.000	13.604	295.088	2.500
188.100	1.423	5.600	1.000	62.024	-159.478	0.000	13.447	295.144	2.500
188.200	1.424	5.600	1.000	61.933	-163.752	0.000	13.393	295.206	2.500
188.300	1.424	5.600	1.000	61.879	-161.093	0.000	13.367	295.231	2.500
188.400	1.424	5.600	1.000	61.789	-163.525	0.000	12.526	295.298	2.500
188.500	1.424	5.600	1.000	61.733	-203.079	0.000	8.383	295.687	2.500
188.600	1.425	5.600	1.000	61.643	-233.124	0.000	6.095	296.016	2.500
188.700	1.424	5.600	1.000	61.588	-248.294	0.000	5.192	296.231	2.500
188.800	1.424	5.601	1.000	61.497	-258.400	0.000	5.222	296.311	2.500
188.900	1.426	5.601	1.000	61.398	-240.460	0.000	5.229	296.359	2.500
189.000	1.430	5.602	1.000	61.342	-245.611	0.000	5.099	296.400	2.500
189.100	1.429	5.601	1.000	61.254	-252.120	0.000	5.143	296.481	2.500
189.200	1.428	5.602	1.000	61.196	-237.540	0.000	5.127	296.530	2.500
189.300	1.429	5.601	1.000	61.105	-246.051	0.000	4.923	296.576	2.500
189.400	1.428	5.602	1.000	61.006	-246.562	0.000	5.079	296.626	2.500
189.500	1.430	5.602	1.000	60.952	-245.570	0.000	5.008	296.689	2.500
189.600	1.430	5.603	1.000	60.860	-286.054	0.000	5.122	296.709	2.500
189.700	1.430	5.601	1.000	60.763	-365.032	0.000	5.150	296.739	2.500
189.800	1.434	5.600	1.000	60.623	-421.138	0.000	4.789	296.801	2.500
189.900	1.433	5.601	1.000	60.520	-466.601	0.000	4.884	296.818	2.500
190.000	1.434	5.601	1.000	60.421	-506.865	0.000	5.124	296.856	2.500
190.100	1.435	5.600	1.000	60.277	-590.015	0.000	5.426	296.858	2.500
190.200	1.433	5.601	1.000	60.133	-649.844	0.000	5.523	296.854	2.500
190.300	1.434	5.602	1.000	60.029	-614.561	0.000	5.475	296.883	2.500
190.400	1.435	5.602	1.000	59.931	-579.544	0.000	5.524	296.933	2.500
190.500	1.436	5.602	1.000	59.789	-557.430	0.000	5.357	296.965	2.500
190.600	1.436	5.603	1.000	59.685	-558.083	0.000	5.397	296.988	2.500
190.700	1.436	5.602	1.000	59.545	-574.546	0.000	5.483	297.015	2.500
190.800	1.437	5.604	1.000	59.349	-749.688	0.000	5.364	297.053	2.500
190.900	1.437	5.604	1.000	59.200	-915.560	0.000	5.371	297.092	2.500
191.000	1.437	5.604	1.000	59.057	-941.887	0.000	5.390	297.127	2.500
191.100	1.436	5.604	1.000	58.864	-916.453	0.000	5.443	297.126	2.500
191.200	1.436	5.604	1.000	58.711	-868.829	0.000	5.373	297.162	2.500
191.300	1.437	5.605	1.000	58.565	-854.227	0.000	5.316	297.187	2.500
191.400	1.435	5.604	1.000	58.419	-843.566	0.000	5.301	297.217	2.500
191.500	1.433	5.604	1.000	58.274	-818.373	0.000	5.373	297.252	2.500
191.600	1.433	5.604	1.000	58.123	-800.163	0.000	5.390	297.276	2.500
191.700	1.433	5.604	1.000	57.974	-789.941	0.000	5.239	297.317	2.500
191.800	1.436	5.603	1.000	57.830	-801.843	0.000	5.251	297.338	2.500
191.900	1.434	5.604	1.000	57.685	-804.261	0.000	5.240	297.361	2.500
192.000	1.433	5.602	1.000	57.534	-781.975	0.000	5.248	297.396	2.500
192.100	1.432	5.604	1.000	57.389	-760.195	0.000	5.270	297.397	2.500
192.200	1.430	5.604	1.000	57.241	-761.530	0.000	5.213	297.422	2.500
192.300	1.431	5.602	1.000	57.095	-745.970	0.000	5.243	297.443	2.500
192.400	1.429	5.602	1.000	56.948	-738.173	0.000	5.100	297.484	2.500
192.500	1.430	5.604	1.000	56.801	-741.810	0.000	5.154	297.512	2.500
192.600	1.429	5.605	1.000	56.701	-734.579	0.000	5.176	297.545	2.500
192.700	1.430	5.602	1.000	56.560	-729.405	0.000	5.089	297.574	2.500
192.800	1.430	5.604	1.000	56.409	-748.177	0.000	5.045	297.594	2.500
192.900	1.424	5.604	1.000	56.263	-777.296	0.000	5.211	297.602	2.500
193.000	1.424	5.607	1.000	56.071	-849.395	0.000	4.954	297.660	2.500
193.100	1.423	5.607	1.000	55.926	-882.166	0.000	4.953	297.680	2.500
193.200	1.424	5.606	1.000	55.777	-872.139	0.000	5.087	297.684	2.500
193.300	1.424	5.606	1.000	55.585	-924.063	0.000	5.021	297.707	2.500
193.400	1.424	5.606	1.000	55.437	-1052.883	0.000	5.025	297.733	2.500
193.500	1.424	5.606	1.000	55.245	-1067.141	0.000	5.253	297.750	2.500
193.600	1.423	5.606	1.000	55.048	-1045.719	0.000	5.111	297.761	2.500
193.700	1.422	5.607	1.000	54.901	-1055.285	0.000	5.087	297.799	2.500
193.800	1.418	5.608	1.000	54.707	-1049.519	0.000	5.163	297.808	2.500
193.900	1.418	5.609	1.000	54.510	-1034.363	0.000	5.096	297.845	2.500
194.000	1.418	5.607	1.000	54.363	-1033.132	0.000	5.064	297.862	2.500
194.100	1.418	5.607	1.000	54.169	-1012.360	0.000	5.040	297.885	2.500
194.200	1.419	5.607	1.000	54.020	-1021.758	0.000	5.102	297.890	2.500
194.300	1.418	5.607	1.000	53.828	-1013.914	0.000	5.097	297.905	2.500
194.400	1.418	5.608	1.000	53.682	-1009.467	0.000	5.070	297.924	2.500
194.500	1.416	5.609	1.000	53.488	-1011.212	0.000	5.003	297.962	2.500
194.600	1.414	5.609	1.000	53.336	-996.990	0.000	5.017	297.996	2.500
194.700	1.414	5.610	1.000	53.140	-1003.605	0.000	5.034	298.014	2.500
194.800	1.413	5.610	1.000	52.992	-1007.299	0.000	5.078	298.040	2.500
194.900	1.414	5.610	1.000	52.802	-989.516	0.000	5.081	298.035	2.500
195.000	1.413	5.609	1.000	52.653	-1005.675	0.000	5.084	298.070	2.500
195.100	1.414	5.611	1.000	52.509	-989.722	0.000	4.934	298.090	2.500
195.200	1.414	5.612	1.000	52.316	-990.948	0.000	4.783	298.118	2.500
195.300	1.414	5.613	1.000	52.119	-1003.729	0.000	4.679	298.156	2.500
195.400	1.410	5.615	1.000	51.971	-987.001	0.000	4.667	298.188	2.500
195.500	1.409	5.614	1.000	51.826	-1003.615	0.000	4.612	298.215	2.500
195.600	1.407	5.615	1.000	51.631	-993.541	0.000	4.569	298.235	2.500
195.700	1.408	5.613	1.000	51.479	-987.709	0.000	4.551	298.247	2.500
195.800	1.407	5.614	1.000	51.287	-998.156	0.000	4.494	298.285	2.500
195.900	1.407	5.615	1.000	51.138	-984.565	0.000	4.409	298.305	2.500
196.000	1.407	5.613	1.000	50.994	-1003.374	0.000	4.420	298.324	2.500
196.100	1.405	5.615	1.000	50.801	-993.439	0.000	4.418	298.350	2.500
196.200	1.399	5.615	1.000	50.652	-985.821	0.000	4.359	298.366	2.500
196.300	1.398	5.617	1.000	50.457	-1003.012	0.000	4.371	298.393	2.500
196.400	1.398	5.617	1.000	50.312	-989.291	0.000	4.309	298.410	2.500
196.500	1.398	5.617	1.000	50.164	-1008.939	0.000	4.284	298.436	2.500
196.600	1.398	5.617	1.000	49.956	-991.270	0.000	4.313	298.467	2.500
196.700	1.397	5.617	1.000	49.809	-996.043	0.000	4.214	298.490	2.500
196.800	1.398	5.615	1.000	49.614	-1002.223	0.000	4.174	298.499	2.500
196.900	1.395	5.617	1.000	49.470	-989.159	0.000	4.190	298.528	2.500
197.000	1.390	5.618	1.000	49.323	-1011.495	0.000	4.137	298.552	2.500
197.100	1.387	5.620	1.000	49.130	-995.638	0.000	4.109	298.587	2.500
197.200	1.385	5.620	1.000	48.985	-1003.497	0.000	4.101	298.604	2.500
197.300	1.385	5.620	1.000	48.836	-992.192	0.000	4.116	298.612	2.500
197.400	1.385	5.620	1.000	48.644	-991.179	0.000	4.022	298.634	2.500
197.500	1.385	5.620	1.000	48.498	-1006.699	0.000	4.008	298.650	2.500
197.600	1.385	5.620	1.000	48.306	-999.655	0.000	3.992	298.680	2.500
197.700	1.379	5.621	1.000	48.153	-1020.138	0.000	3.970	298.697	2.500
197.800	1.375	5.625	1.000	48.010	-994.241	0.000	3.919	298.720	2.500
197.900	1.372	5.624	1.000	47.814	-1015.507	0.000	3.920	298.728	2.500
198.000	1.373	5.626	1.000	47.666	-1004.124	0.000	3.864	298.762	2.500
198.100	1.372	5.623	1.000	47.519	-1011.564	0.000	3.868	298.767	2.500
198.200	1.374	5.626	1.000	47.326	-1016.652	0.000	3.742	298.801	2.500
198.300	1.374	5.626	1.000	47.178	-1006.005	0.000	3.531	298.855	2.500
198.400	1.373	5.624	1.000	46.982	-1030.740	0.000	3.394	298.876	2.500
198.500	1.371	5.626	1.000	46.838	-1009.339	0.000	3.315	298.884	2.500
198.600	1.362	5.627	1.000	46.688	-1039.368	0.000	3.176	298.944	2.500
198.700	1.356	5.629	1.000	46.497	-1015.463	0.000	3.185	298.957	2.500
198.800	1.354	5.627	1.000	46.348	-1040.637	0.000	3.080	298.980	2.500
198.900	1.354	5.629	1.000	46.155	-1021.323	0.000	3.013	299.011	2.500
199.000	1.354	5.628	1.000	46.007	-1035.233	0.000	3.073	299.016	2.500
199.100	1.355	5.628	1.000	45.863	-1024.710	0.000	3.070	299.050	2.500
199.200	1.355	5.628	1.000	45.671	-1028.009	0.000	3.009	299.070	2.500
199.300	1.349	5.629	1.000	45.519	-1039.194	0.000	2.973	299.093	2.500
199.400	1.338	5.633	1.000	45.371	-1025.639	0.000	2.966	299.116	2.500
199.500	1.334	5.633	1.000	45.179	-1053.282	0.000	2.888	299.113	2.500
199.600	1.333	5.633	1.000	45.031	-1025.077	0.000	2.913	299.147	2.500
199.700	1.333	5.633	1.000	44.840	-1050.236	0.000	2.853	299.155	2.500
199.800	1.333	5.634	1.000	44.691	-1032.783	0.000	2.824	299.197	2.500
199.900	1.332	5.633	1.000	44.543	-1059.444	0.000	2.920	299.187	2.500
200.000	1.333	5.633	1.000	44.351	-1031.110	0.000	2.883	299.220	2.500
200.100	1.332	5.633	1.000	44.202	-1063.377	0.000	2.794	299.244	2.500
200.200	1.315	5.633	1.000	44.007	-1029.053	0.000	2.850	299.260	2.500
200.300	1.307	5.636	1.000	43.858	-1067.239	0.000	2.812	299.264	2.500
200.400	1.307	5.635	1.000	43.664	-1039.431	0.000	2.867	299.298	2.500
200.500	1.306	5.635	1.000	43.519	-1072.373	0.000	2.850	299.292	2.500
200.600	1.304	5.633	1.000	43.371	-1041.836	0.000	2.828	299.306	2.500
200.700	1.306	5.636	1.000	43.178	-1077.198	0.000	2.777	299.333	2.500
200.800	1.307	5.637	1.000	43.030	-1046.818	0.000	2.813	299.342	2.500
200.900	1.299	5.637	1.000	42.839	-1078.340	0.000	2.801	299.372	2.500
201.000	1.282	5.639	1.000	42.691	-1047.239	0.000	2.829	299.381	2.500
201.100	1.277	5.640	1.000	42.545	-1080.073	0.000	2.802	299.400	2.500
201.200	1.275	5.639	1.000	42.353	-1046.944	0.000	2.788	299.419	2.500
201.300	1.274	5.640	1.000	42.202	-1087.343	0.000	2.756	299.435	2.500
201.400	1.273	5.639	1.000	42.011	-1053.081	0.000	2.805	299.446	2.500
201.500	1.273	5.639	1.000	41.863	-1103.933	0.000	2.801	299.454	2.500
201.600	1.274	5.639	1.000	41.669	-1110.452	0.000	2.829	299.477	2.500
201.700	1.270	5.641	1.000	41.475	-1189.265	0.000	2.793	299.504	2.500
201.800	1.252	5.641	1.000	41.325	-1151.333	0.000	2.804	299.505	2.500
201.900	1.239	5.641	1.000	41.132	-1189.292	0.000	2.804	299.531	2.500
202.000	1.238	5.642	1.000	40.984	-1148.415	0.000	2.814	299.547	2.500
202.100	1.236	5.642	1.000	40.788	-1181.794	0.000	2.814	299.555	2.500
202.200	1.236	5.642	1.000	40.593	-1145.961	0.000	2.855	299.570	2.500
202.300	1.236	5.642	1.000	40.397	-1239.315	0.000	2.859	299.586	2.500
202.400	1.236	5.642	1.000	40.205	-1319.426	0.000	2.800	299.598	2.500
202.500	1.228	5.643	1.000	40.008	-1401.897	0.000	2.804	299.627	2.500
202.600	1.203	5.644	1.000	39.770	-1360.241	0.000	2.838	299.626	2.500
202.700	1.196	5.646	1.000	39.570	-1414.219	0.000	2.837	299.652	2.500
202.800	1.192	5.646	1.000	39.377	-1413.846	0.000	2.890	299.652	2.500
202.900	1.192	5.646	1.000	39.136	-1427.494	0.000	2.838	299.679	2.500
203.000	1.190	5.646	1.000	38.887	-1489.860	0.000	2.867	299.687	2.500
203.100	1.190	5.646	1.000	38.688	-1565.936	0.000	2.894	299.710	2.500
203.200	1.190	5.648	1.000	38.451	-1665.735	0.000	2.901	299.711	2.500
203.300	1.190	5.645	1.000	38.208	-1632.084	0.000	2.917	299.734	2.500
203.400	1.167	5.648	1.000	37.962	-1658.523	0.000	2.933	299.749	2.500
203.500	1.152	5.648	1.000	37.715	-1638.453	0.000	2.955	299.746	2.500
203.600	1.146	5.649	1.000	37.466	-1717.459	0.000	2.947	299.761	2.500
203.700	1.145	5.648	1.000	37.224	-1668.523	0.000	2.946	299.776	2.500
203.800	1.143	5.649	1.000	36.976	-1691.577	0.000	2.953	299.780	2.500
203.900	1.145	5.649	1.000	36.731	-1682.388	0.000	2.996	299.799	2.500
204.000	1.145	5.649	1.000	36.491	-1678.820	0.000	3.007	299.819	2.500
204.100	1.139	5.649	1.000	36.248	-1712.498	0.000	2.992	299.827	2.500
204.200	1.110	5.652	1.000	36.003	-1665.348	0.000	2.710	299.846	2.500
204.300	1.097	5.652	1.000	35.756	-1719.143	0.000	1.362	299.977	2.500
204.400	1.094	5.653	1.000	35.514	-1726.241	0.000	0.708	300.078	2.500
204.500	1.092	5.652	1.000	35.222	-1745.980	0.000	0.507	300.124	2.500
204.600	1.092	5.652	1.000	34.977	-1747.895	0.000	0.498	300.159	2.500
204.700	1.093	5.654	1.000	34.736	-1725.665	0.000	0.458	300.176	2.500
204.800	1.092	5.652	1.000	34.397	-1857.317	0.000	0.475	300.188	2.500
204.900	1.090	5.652	1.000	34.008	-2326.023	0.000	0.523	300.196	2.500
205.000	1.064	5.655	1.000	33.615	-2879.369	0.000	0.524	300.229	2.500
205.100	1.042	5.655	1.000	33.226	-2871.331	0.000	0.524	300.246	2.500
205.200	1.035	5.655	1.000	32.835	-2788.283	0.000	0.543	300.243	2.500
205.300	1.035	5.655	1.000	32.442	-2826.480	0.000	2.118	300.146	2.500
205.400	1.035	5.655	1.000	32.053	-2778.109	0.000	2.662	300.089	2.500
205.500	1.034	5.655	1.000	31.620	-2876.691	0.000	2.709	300.083	2.500
205.600	1.033	5.654	1.000	31.184	-3158.359	0.000	2.786	300.091	2.500
205.700	1.029	5.656	1.000	30.700	-3317.586	0.000	2.763	300.084	2.500
205.800	0.996	5.658	1.000	30.257	-3360.068	0.000	2.737	300.091	2.500
205.900	0.981	5.659	1.000	29.772	-3374.142	0.000	2.696	300.114	2.500
206.000	0.974	5.659	1.000	29.285	-3375.908	0.000	2.679	300.129	2.500
206.100	0.974	5.659	1.000	28.798	-3518.593	0.000	2.644	300.137	2.500
206.200	0.974	5.659	1.000	28.304	-3619.113	0.000	2.671	300.149	2.500
206.300	0.974	5.659	1.000	27.814	-3582.504	0.000	2.644	300.157	2.500
206.400	0.974	5.659	1.000	27.331	-3621.673	0.000	2.604	300.168	2.500
206.500	0.972	5.659	1.000	26.845	-3595.102	0.000	2.585	300.187	2.500
206.600	0.945	5.662	1.000	26.350	-3582.091	0.000	2.556	300.218	2.500
206.700	0.918	5.662	1.000	25.812	-3646.457	0.000	2.530	300.208	2.500
206.800	0.909	5.663	1.000	25.279	-3788.376	0.000	2.508	300.237	2.500
206.900	0.905	5.663	1.000	24.696	-4042.792	0.000	2.485	300.250	2.500
207.000	0.905	5.664	1.000	24.108	-4281.649	0.000	2.447	300.269	2.500
207.100	0.905	5.663	1.000	23.475	-4387.673	0.000	2.433	300.277	2.500
207.200	0.905	5.662	1.000	22.889	-4427.862	0.000	2.369	300.296	2.500
207.300	0.901	5.664	1.000	22.265	-4543.741	0.000	2.352	300.319	2.500
207.400	0.863	5.665	1.000	21.623	-4590.282	0.000	2.271	300.346	2.500
207.500	0.843	5.665	1.000	20.997	-4641.336	0.000	2.258	300.355	2.500
207.600	0.839	5.668	1.000	20.380	-4737.959	0.000	2.220	300.370	2.500
207.700	0.836	5.667	1.000	19.636	-4781.957	0.000	2.197	300.393	2.500
207.800	0.836	5.666	1.000	18.902	-5108.279	0.000	2.152	300.398	2.500
207.900	0.835	5.666	1.000	18.160	-5554.118	0.000	2.113	300.417	2.500
208.000	0.835	5.667	1.000	17.410	-5607.377	0.000	2.081	300.421	2.500
208.100	0.835	5.668	1.000	16.655	-5557.733	0.000	2.055	300.447	2.500
208.200	0.811	5.670	1.000	15.881	-5604.400	0.000	2.003	300.460	2.500
208.300	0.776	5.672	1.000	15.151	-5638.650	0.000	1.986	300.471	2.500
208.400	0.765	5.672	1.000	14.388	-5627.859	0.000	1.961	300.490	2.500
208.500	0.763	5.672	1.000	13.636	-5611.564	0.000	1.938	300.506	2.500
208.600	0.759	5.672	1.000	12.849	-5584.649	0.000	1.903	300.525	2.500
208.700	0.760	5.672	1.000	12.107	-5571.669	0.000	1.842	300.541	2.500
208.800	0.761	5.671	1.000	11.424	-5454.584	0.000	1.791	300.549	2.500
208.900	0.758	5.672	1.000	10.738	-5267.969	0.000	1.767	300.572	2.500
209.000	0.720	5.674	1.000	10.056	-5155.260	0.000	1.754	300.584	2.500
209.100	0.693	5.677	1.000	9.376	-5002.075	0.000	1.706	300.611	2.500
209.200	0.685	5.677	1.000	8.736	-4919.691	0.000	1.660	300.611	2.500
209.300	0.683	5.679	1.000	8.056	-4980.201	0.000	1.644	300.645	2.500
209.400	0.682	5.678	1.000	7.369	-5063.439	0.000	1.599	300.657	2.500
209.500	0.681	5.678	1.000	6.743	-5065.370	0.000	1.548	300.669	2.500
209.600	0.681	5.678	1.000	6.195	-4744.008	0.000	1.511	300.681	2.500
209.700	0.681	5.678	1.000	5.661	-3950.798	0.000	1.489	300.707	2.500
209.800	0.659	5.678	1.000	5.216	-3634.226	0.000	1.456	300.716	2.500
209.900	0.620	5.679	1.000	4.728	-3581.928	0.000	1.446	300.739	2.500
210.000	0.606	5.681	1.000	4.285	-3427.128	0.000	1.421	300.736	2.500
210.100	0.603	5.682	1.000	3.845	-3408.043	0.000	1.414	300.758	2.500
210.200	0.601	5.680	1.000	3.357	-3447.191	0.000	1.382	300.766	2.500
210.300	0.600	5.682	1.000	2.870	-3487.532	0.000	1.356	300.781	2.500
210.400	0.600	5.683	1.000	2.379	-3569.972	0.000	1.327	300.782	2.500
210.500	0.599	5.681	1.000	1.943	-3626.291	0.000	1.308	300.816	2.500
210.600	0.560	5.684	1.000	1.544	-3460.924	0.000	1.295	300.839	2.500
210.700	0.530	5.688	1.000	1.154	-2996.439	0.000	1.291	300.840	2.500
210.800	0.521	5.688	1.000	0.806	-2702.343	0.000	1.259	300.855	2.500
210.900	0.516	5.687	1.000	0.512	-2532.547	0.000	1.255	300.859	2.500
211.000	0.517	5.689	1.000	0.181	-2417.053	0.000	1.246	300.886	2.500
211.100	0.516	5.688	1.000	0.012	-164.852	0.000	1.129	300.894	2.500
211.200	0.516	5.688	1.000	0.000	-44.150	0.000	1.132	300.906	2.500
211.300	0.515	5.689	1.000	0.000	-399.140	0.000	1.126	300.940	2.500
211.400	0.500	5.691	1.000	0.000	-37.731	0.000	1.129	300.934	2.500
211.500	0.460	5.694	1.000	0.111	-1.337	0.000	1.095	300.959	2.500
211.600	0.444	5.697	1.000	0.056	7.398	0.000	1.090	300.964	2.500
211.700	0.438	5.698	1.000	0.003	-10.242	0.000	1.005	300.998	2.500
211.800	0.437	5.696	1.000	0.000	-11.507	0.000	0.963	301.003	2.500
211.900	0.436	5.697	1.000	0.000	-11.307	0.000	0.955	301.011	2.500
212.000	0.436	5.698	1.000	0.039	-11.491	0.000	0.958	301.011	2.500
212.100	0.435	5.697	1.000	0.050	-11.374	0.000	0.961	301.030	2.500
212.200	0.401	5.701	1.000	0.004	-11.496	0.000	0.964	301.042	2.500
212.300	0.369	5.703	1.000	0.000	-11.238	0.000	0.958	301.053	2.500
212.400	0.359	5.706	1.000	0.000	-11.483	0.000	0.961	301.069	2.500
212.500	0.354	5.705	1.000	0.000	-11.440	0.000	0.961	301.073	2.500
212.600	0.354	5.704	1.000	0.000	-11.102	0.000	0.961	301.088	2.500
212.700	0.353	5.705	1.000	0.000	-11.341	0.000	0.961	301.100	2.500
212.800	0.352	5.704	1.000	0.000	-11.296	0.000	0.961	301.108	2.500
212.900	0.352	5.705	1.000	0.000	-11.426	0.000	0.961	301.123	2.500
213.000	0.339	5.706	1.000	0.000	-11.635	0.000	0.958	301.146	2.500
213.100	0.297	5.712	1.000	0.000	-11.519	0.000	0.958	301.139	2.500
213.200	0.281	5.715	1.000	0.001	-11.441	0.000	0.961	301.143	2.500
213.300	0.277	5.717	1.000	0.001	-11.435	0.000	0.970	301.165	2.500
213.400	0.274	5.716	1.000	0.000	-11.368	0.000	0.971	301.166	2.500
213.500	0.273	5.715	1.000	0.000	-11.296	0.000	0.961	301.181	2.500
213.600	0.275	5.716	1.000	0.002	-11.626	0.000	0.958	301.204	2.500
213.700	0.274	5.717	1.000	0.000	-11.316	0.000	0.961	301.216	2.500
213.800	0.250	5.720	1.000	0.000	-11.224	0.000	0.961	301.209	2.500
213.900	0.213	5.726	1.000	0.001	-11.692	0.000	0.961	301.231	2.500
214.000	0.202	5.728	1.000	0.001	-11.321	0.000	0.961	301.243	2.500
214.100	0.199	5.730	1.000	0.000	-11.357	0.000	0.955	301.244	2.500
214.200	0.197	5.729	1.000	0.000	-11.563	0.000	0.958	301.251	2.500
214.300	0.197	5.729	1.000	0.000	-11.579	0.000	0.958	301.252	2.500
214.400	0.197	5.729	1.000	0.000	-11.579	0.000	0.958	301.252	2.500
214.500	0.197	5.729	1.000	0.000	-11.579	0.000	0.958	301.252	2.500
214.600	0.197	5.729	1.000	0.000	-11.579	0.000	0.958	301.252	2.500
214.700	0.197	5.729	1.000	0.000	-11.579	0.000	0.958	301.252	2.500
214.800	0.197	5.729	1.000	0.000	-11.579	0.000	0.958	301.252	2.500
214.900	0.197	5.729	1.000	0.000	-11.579	0.000	0.958	301.252	2.500
215.000	0.197	5.729	1.000	0.000	-11.579	0.000	0.958	301.252	2.500
215.100	0.197	5.729	1.000	0.000	-11.579	0.000	0.958	301.252	2.500
215.200	0.197	5.729	1.000	0.000	-11.579	0.000	0.958	301.252	2.500
215.300	0.197	5.729	1.000	0.000	-11.579	0.000	0.958	301.252	2.500
215.400	0.197	5.729	1.000	0.000	-11.579	0.000	0.958	301.252	2.500
215.500	0.197	5.729	1.000	0.000	-11.579	0.000	0.958	301.252	2.500
215.600	0.197	5.729	1.000	0.000	-11.579	0.000	0.958	301.252	2.500
215.700	0.197	5.729	1.000	0.000	-11.579	0.000	0.958	301.252	2.500
215.800	0.197	5.729	1.000	0.000	-11.579	0.000	0.958	301.252	2.500
215.900	0.197	5.729	1.000	0.000	-11.579	0.000	0.958	301.252	2.500
216.000	0.197	5.729	1.000	0.000	-11.579	0.000	0.958	301.252	2.500
216.100	0.197	5.729	1.000	0.000	-11.579	0.000	0.958	301.252	2.500
216.200	0.197	5.729	1.000	0.000	-11.579	0.000	0.958	301.252	2.500
216.300	0.197	5.729	1.000	0.000	-11.579	0.000	0.958	301.252	2.500
216.400	0.197	5.729	1.000	0.000	-11.579	0.000	0.958	301.252	2.500
216.500	0.197	5.729	1.000	0.000	-11.579	0.000	0.958	301.252	2.500
216.600	0.197	5.729	1.000	0.000	-11.579	0.000	0.958	301.252	2.500
216.700	0.197	5.729	1.000	0.000	-11.579	0.000	0.958	301.252	2.500
216.800	0.197	5.729	1.000	0.000	-11.579	0.000	0.958	301.252	2.500
216.900	0.197	5.729	1.000	0.000	-11.579	0.000	0.958	301.252	2.500
217.000	0.197	5.729	1.000	0.000	-11.579	0.000	0.958	301.252	2.500
217.100	0.197	5.729	1.000	0.000	-11.579	0.000	0.958	301.252	2.500
217.200	0.197	5.729	1.000	0.000	-11.579	0.000	0.958	301.252	2.500
217.300	0.197	5.729	1.000	0.000	-11.579	0.000	0.958	301.252	2.500
217.400	0.197	5.729	1.000	0.000	-11.579	0.000	0.958	301.252	2.500
217.500	0.197	5.729	1.000	0.000	-11.579	0.000	0.958	301.252	2.500
217.600	0.197	5.729	1.000	0.000	-11.579	0.000	0.958	301.252	2.500
217.700	0.197	5.729	1.000	0.000	-11.579	0.000	0.958	301.252	2.500
217.800	0.197	5.729	1.000	0.000	-11.579	0.000	0.958	301.252	2.500
217.900	0.197	5.729	1.000	0.000	-11.579	0.000	0.958	301.252	2.500
218.000	0.197	5.729	1.000	0.000	-11.579	0.000	0.958	301.252	2.500
218.100	0.197	5.729	1.000	0.000	-11.579	0.000	0.958	301.252	2.500
218.200	0.197	5.729	1.000	0.000	-11.579	0.000	0.958	301.252	2.500
218.300	0.197	5.729	1.000	0.000	-11.579	0.000	0.958	301.252	2.500
218.400	0.197	5.729	1.000	0.000	-11.579	0.000	0.958	301.252	2.500
218.500	0.197	5.729	1.000	0.000	-11.579	0.000	0.958	301.252	2.500
218.600	0.197	5.729	1.000	0.000	-11.579	0.000	0.958	301.252	2.500
218.700	0.197	5.729	1.000	0.000	-11.579	0.000	0.958	301.252	2.500
218.800	0.197	5.729	1.000	0.000	-11.579	0.000	0.958	301.252	2.500
218.900	0.197	5.729	1.000	0.000	-11.579	0.000	0.958	301.252	2.500
219.000	0.197	5.729	1.000	0.000	-11.579	0.000	0.958	301.252	2.500
219.100	0.197	5.729	1.000	0.000	-11.579	0.000	0.958	301.252	2.500
219.200	0.197	5.729	1.000	0.000	-11.579	0.000	0.958	301.252	2.500
219.300	0.197	5.729	1.000	0.000	-11.579	0.000	0.958	301.252	2.500
219.400	0.197	5.729	1.000	0.000	-11.579	0.000	0.958	301.252	2.500
219.500	0.197	5.729	1.000	0.000	-11.579	0.000	0.958	301.252	2.500
219.600	0.197	5.729	1.000	0.000	-11.579	0.000	0.958	301.252	2.500
219.700	0.197	5.729	1.000	0.000	-11.579	0.000	0.958	301.252	2.500
219.800	0.197	5.729	1.000	0.000	-11.579	0.000	0.958	301.252	2.500
219.900	0.197	5.729	1.000	0.000	-11.579	0.000	0.958	301.252	2.500
220.000	0.197	5.729	1.000	0.000	-11.579	0.000	0.958	301.252	2.500
220.100	0.197	5.729	1.000	0.000	-11.579	0.000	0.958	301.252	2.500
220.200	0.197	5.729	1.000	0.000	-11.579	0.000	0.958	301.252	2.500
220.300	0.197	5.729	1.000	0.000	-11.579	0.000	0.958	301.252	2.500
220.400	0.197	5.729	1.000	0.000	-11.579	0.000	0.958	301.252	2.500
220.500	0.197	5.729	1.000	0.000	-11.579	0.000	0.958	301.252	2.500
220.600	0.197	5.729	1.000	0.000	-11.579	0.000	0.958	301.252	2.500
220.700	0.197	5.729	1.000	0.000	-11.579	0.000	0.958	301.252	2.500
220.800	0.197	5.729	1.000	0.000	-11.579	0.000	0.958	301.252	2.500
220.900	0.197	5.729	1.000	0.000	-11.579	0.000	0.958	301.252	2.500
221.000	0.197	5.729	1.000	0.000	-11.579	0.000	0.958	301.252	2.500
221.100	0.197	5.729	1.000	0.000	-11.579	0.000	0.958	301.252	2.500
221.200	0.197	5.729	1.000	0.000	-11.579	0.000	0.958	301.252	2.500
221.300	0.197	5.729	1.000	0.000	-11.579	0.000	0.958	301.252	2.500
221.400	0.197	5.729	1.000	0.000	-11.579	0.000	0.958	301.252	2.500
221.500	0.197	5.729	1.000	0.000	-11.579	0.000	0.958	301.252	2.500
221.600	0.197	5.729	1.000	0.000	-11.579	0.000	0.958	301.252	2.500
221.700	0.197	5.729	1.000	0.000	-11.579	0.000	0.958	301.252	2.500
221.800	0.197	5.729	1.000	0.000	-11.579	0.000	0.958	301.252	2.500
221.900	0.197	5.729	1.000	0.000	-11.579	0.000	0.958	301.252	2.500
222.000	0.197	5.729	1.000	0.000	-11.579	0.000	0.958	301.252	2.500
222.100	0.197	5.729	1.000	0.000	-11.579	0.000	0.958	301.252	2.500
222.200	0.197	5.729	1.000	0.000	-11.579	0.000	0.958	301.252	2.500
222.300	0.197	5.729	1.000	0.000	-11.579	0.000	0.958	301.252	2.500
222.400	0.197	5.729	1.000	0.000	-11.579	0.000	0.958	301.252	2.500
222.500	0.197	5.729	1.000	0.000	-11.579	0.000	0.958	301.252	2.500
222.600	0.197	5.729	1.000	0.000	-11.579	0.000	0.958	301.252	2.500
222.700	0.197	5.729	1.000	0.000	-11.579	0.000	0.958	301.252	2.500
222.800	0.197	5.729	1.000	0.000	-11.579	0.000	0.958	301.252	2.500
222.900	0.197	5.729	1.000	0.000	-11.579	0.000	0.958	301.252	2.500
223.000	0.197	5.729	1.000	0.000	-11.579	0.000	0.958	301.252	2.500
223.100	0.197	5.729	1.000	0.000	-11.579	0.000	0.958	301.252	2.500
223.200	0.197	5.729	1.000	0.000	-11.579	0.000	0.958	301.252	2.500
223.300	0.197	5.729	1.000	0.000	-11.579	0.000	0.958	301.252	2.500
223.400	0.197	5.729	1.000	0.000	-11.579	0.000	0.958	301.252	2.500
223.500	0.197	5.729	1.000	0.000	-11.579	0.000	0.958	301.252	2.500
223.600	0.197	5.729	1.000	0.000	-11.579	0.000	0.958	301.252	2.500
223.700	0.197	5.729	1.000	0.000	-11.579	0.000	0.958	301.252	2.500
223.800	0.197	5.729	1.000	0.000	-11.579	0.000	0.958	301.252	2.500
223.900	0.197	5.729	1.000	0.000	-11.579	0.000	0.958	301.252	2.500
224.000	0.197	5.729	1.000	0.000	-11.579	0.000	0.958	301.252	2.500
224.100	0.197	5.729	1.000	0.000	-11.579	0.000	0.958	301.252	2.500
224.200	0.197	5.729	1.000	0.000	-11.579	0.000	0.958	301.252	2.500
